Time,Count,Accel X (g),Accel Y (g),Accel Z (g),Gyro X (dps),Gyro Y (dps),Gyro Z (dps)
0.018999999,3,0.006,-0.068300001,2.241699934,0,0,-0.122000001
0.023,4,0.006,-0.068300001,2.241699934,0,0,-0.122000001
0.045000002,5,0.003,-0.100000001,3.213500023,0,0,-0.122000001
0.052999999,6,-0.0006,-0.1162,3.827800035,0,0,-0.122000001
0.057,7,-0.0006,-0.1162,3.827800035,0,0,-0.122000001
0.075000003,8,-0.006,-0.129899994,4.220600128,0,0,-0.122000001
0.082999997,9,-0.0078,-0.134100005,4.463099957,0,-0.061000001,-0.122000001
0.086999997,10,-0.0078,-0.134100005,4.463099957,0,-0.061000001,-0.122000001
0.104999997,11,-0.003,-0.1329,4.612800121,0,-0.061000001,-0.122000001
0.112999998,12,0,-0.130500004,4.706200123,0,0,-0.122000001
0.116999999,13,0,-0.130500004,4.706200123,0,0,-0.122000001
0.135000005,14,-0.0012,-0.131099999,4.76429987,0,0,-0.122000001
0.143000007,15,-0.0066,-0.126300007,4.802000046,0,0,-0.122000001
0.147,16,-0.0066,-0.126300007,4.802000046,0,0,-0.122000001
0.165000007,17,-0.0096,-0.125699997,4.827199936,0,0,-0.122000001
0.172999993,18,-0.009,-0.125100002,4.846300125,0,0,-0.122000001
0.177000001,19,-0.009,-0.125100002,4.846300125,0,0,-0.122000001
0.189999998,20,-0.0066,-0.125699997,4.856500149,0,0,-0.122000001
0.194000006,21,-0.0066,-0.125699997,4.856500149,0,0,-0.122000001
0.204999998,22,-0.0066,-0.125100002,4.859499931,0,0,-0.122000001
0.209000006,23,-0.0066,-0.125100002,4.859499931,0,0,-0.122000001
0.225999996,24,-0.0066,-0.127499998,4.869100094,0,-0.061000001,-0.122000001
0.233999997,25,-0.0048,-0.128099993,4.869100094,0,-0.061000001,-0.122000001
0.238000005,26,-0.0048,-0.128099993,4.869100094,0,-0.061000001,-0.122000001
0.254999995,27,-0.0048,-0.124499999,4.870900154,0,-0.061000001,-0.122000001
0.263999999,28,-0.009,-0.127499998,4.870299816,0,-0.061000001,-0.122000001
0.266000003,29,-0.009,-0.127499998,4.870299816,0,-0.061000001,-0.122000001
0.284999996,30,-0.0024,-0.130500004,4.867899895,0,-0.061000001,-0.122000001
0.293000013,31,0.0018,-0.131099999,4.861299992,0,-0.061000001,-0.122000001
0.296999991,32,0.0018,-0.131099999,4.861299992,0,-0.061000001,-0.122000001
0.310000002,33,0.003,-0.132300004,4.853499889,-0.061000001,-0.061000001,-0.122000001
0.31400001,34,0.003,-0.132300004,4.853499889,-0.061000001,-0.061000001,-0.122000001
0.335000008,35,-0.0006,-0.141299993,4.850500107,-0.061000001,-0.061000001,-0.122000001
0.338999987,36,-0.0006,-0.141299993,4.850500107,-0.061000001,-0.061000001,-0.122000001
0.354000002,37,-0.0048,-0.149100006,4.848100185,-0.061000001,-0.061000001,-0.122000001
0.35800001,38,-0.0048,-0.149100006,4.848100185,-0.061000001,-0.061000001,-0.122000001
0.370000005,39,-0.0036,-0.157499999,4.854100227,-0.061000001,-0.061000001,-0.122000001
0.374000013,40,-0.0036,-0.157499999,4.854100227,-0.061000001,-0.061000001,-0.122000001
0.395000011,41,-0.0018,-0.164700001,4.856500149,0,-0.061000001,-0.122000001
0.402999997,42,0.0012,-0.165299997,4.854700089,0,-0.061000001,-0.122000001
0.412,43,0.0012,-0.168200001,4.852300167,0,-0.061000001,-0.122000001
0.416000009,44,0.0012,-0.168200001,4.852300167,0,-0.061000001,-0.122000001
0.435000002,45,-0.0018,-0.171200007,4.855899811,0,-0.061000001,-0.122000001
0.444000006,46,-0.0006,-0.168200001,4.85710001,0,-0.061000001,-0.122000001
0.446999997,47,-0.0006,-0.168200001,4.85710001,0,-0.061000001,-0.122000001
0.456999987,48,0,-0.1664,4.85710001,0,-0.061000001,-0.122000001
0.460999995,49,0,-0.1664,4.85710001,0,-0.061000001,-0.122000001
0.474999994,50,-0.0042,-0.1664,4.852300167,0,-0.061000001,-0.122000001
0.479000002,51,-0.0042,-0.1664,4.852300167,0,-0.061000001,-0.122000001
0.495000005,52,-0.0066,-0.1664,4.859499931,0,-0.061000001,-0.122000001
0.503000021,53,-0.006,-0.166999996,4.865499973,0,-0.061000001,-0.122000001
0.507000029,54,-0.006,-0.166999996,4.865499973,0,-0.061000001,-0.122000001
0.51700002,55,-0.0108,-0.167600006,4.86070013,0,-0.061000001,-0.122000001
0.521000028,56,-0.0108,-0.167600006,4.86070013,0,-0.061000001,-0.122000001
0.532000005,57,-0.0144,-0.165900007,4.864299774,0,-0.061000001,-0.122000001
0.536000013,58,-0.0144,-0.165900007,4.864299774,0,-0.061000001,-0.122000001
0.555000007,59,-0.0102,-0.162300006,4.862500191,0,-0.061000001,-0.122000001
0.563000023,60,-0.0036,-0.165299997,4.863100052,0,-0.061000001,-0.122000001
0.566999972,61,-0.0036,-0.165299997,4.863100052,0,-0.061000001,-0.122000001
0.584999979,62,-0.0054,-0.171200007,4.858300209,0,-0.061000001,-0.122000001
0.593999982,63,-0.0132,-0.185000002,4.85529995,0,-0.061000001,-0.182899997
0.59799999,64,-0.0132,-0.185000002,4.85529995,0,-0.061000001,-0.182899997
0.61500001,65,-0.0162,-0.198200002,4.857699871,0,-0.061000001,-0.182899997
0.624000013,66,-0.0138,-0.211400002,4.851699829,0.061000001,-0.061000001,-0.182899997
0.625999987,67,-0.0138,-0.211400002,4.851699829,0.061000001,-0.061000001,-0.182899997
0.637000024,68,-0.0036,-0.222100005,4.843299866,0.122000001,-0.061000001,-0.182899997
0.640999973,69,-0.0036,-0.222100005,4.843299866,0.122000001,-0.061000001,-0.182899997
0.65200001,70,0.0006,-0.234099999,4.837900162,0.122000001,-0.061000001,-0.182899997
0.653999984,71,0.0006,-0.234099999,4.837900162,0.122000001,-0.061000001,-0.182899997
0.665000021,72,0.0024,-0.240099996,4.837299824,0.182899997,-0.061000001,-0.182899997
0.666999996,73,0.0024,-0.240099996,4.837299824,0.182899997,-0.061000001,-0.182899997
0.685000002,74,0.0024,-0.237100005,4.838500023,0.182899997,-0.061000001,-0.182899997
0.68900001,75,0.0024,-0.237100005,4.838500023,0.182899997,-0.061000001,-0.182899997
0.699999988,76,-0.0072,-0.227500007,4.839700222,0.182899997,-0.061000001,-0.182899997
0.703999996,77,-0.0072,-0.227500007,4.839700222,0.182899997,-0.061000001,-0.182899997
0.716000021,78,-0.009,-0.225099996,4.83370018,0.182899997,-0.061000001,-0.182899997
0.720000029,79,-0.009,-0.225099996,4.83370018,0.182899997,-0.061000001,-0.182899997
0.735000014,80,-0.0006,-0.231099993,4.820000172,0.182899997,-0.061000001,-0.182899997
0.744000018,81,0.0108,-0.228100002,4.812799931,0.243900001,-0.061000001,-0.182899997
0.748000026,82,0.0108,-0.228100002,4.812799931,0.243900001,-0.061000001,-0.182899997
0.762000024,83,0.0042,-0.222100005,4.814599991,0.304899991,-0.061000001,-0.182899997
0.769999981,84,-0.0138,-0.219099998,4.829599857,0.304899991,-0.122000001,-0.182899997
0.773999989,85,-0.0138,-0.219099998,4.829599857,0.304899991,-0.122000001,-0.182899997
0.790000021,86,-0.0138,-0.219099998,4.829599857,0.304899991,-0.122000001,-0.182899997
0.797999978,87,-0.021600001,-0.209000006,4.846899986,0.304899991,-0.122000001,-0.182899997
0.805999994,88,-0.028100001,-0.187999994,4.864299774,0.365799993,-0.182899997,-0.182899997
0.810000002,89,-0.028100001,-0.187999994,4.864299774,0.365799993,-0.182899997,-0.182899997
0.825999975,90,-0.0359,-0.1664,4.885200024,0.426800013,-0.182899997,-0.182899997
0.833999991,91,-0.040100001,-0.141299993,4.90320015,0.426800013,-0.243900001,-0.182899997
0.838,92,-0.040100001,-0.141299993,4.90320015,0.426800013,-0.243900001,-0.182899997
0.855000019,93,-0.0449,-0.107799999,4.921199799,0.426800013,-0.243900001,-0.182899997
0.862999976,94,-0.043099999,-0.0832,4.924200058,0.426800013,-0.243900001,-0.122000001
0.866999984,95,-0.043099999,-0.0832,4.924200058,0.426800013,-0.243900001,-0.122000001
0.88499999,96,-0.029300001,-0.069499999,4.909200191,0.426800013,-0.243900001,-0.182899997
0.893000007,97,-0.0132,-0.063500002,4.895400047,0.365799993,-0.182899997,-0.182899997
0.897000015,98,-0.0132,-0.063500002,4.895400047,0.365799993,-0.182899997,-0.182899997
0.915000021,99,-0.009,-0.066500001,4.889400005,0.304899991,-0.182899997,-0.182899997
0.924000025,100,-0.012,-0.077200003,4.902599812,0.243900001,-0.182899997,-0.182899997
0.927999973,101,-0.012,-0.077200003,4.902599812,0.243900001,-0.182899997,-0.182899997
0.944999993,102,-0.0174,-0.097599998,4.915200233,0.243900001,-0.182899997,-0.182899997
0.953000009,103,-0.017999999,-0.118000001,4.922399998,0.182899997,-0.182899997,-0.182899997
0.957000017,104,-0.017999999,-0.118000001,4.922399998,0.182899997,-0.182899997,-0.182899997
0.975000024,105,-0.019200001,-0.140100002,4.924799919,0.182899997,-0.182899997,-0.182899997
0.98299998,106,-0.0174,-0.1611,4.926000118,0.243900001,-0.182899997,-0.182899997
0.986999989,107,-0.0174,-0.1611,4.926000118,0.243900001,-0.182899997,-0.182899997
1.004999995,108,-0.0126,-0.185599998,4.928999901,0.243900001,-0.182899997,-0.243900001
1.014000058,109,-0.0066,-0.216800004,4.917600155,0.243900001,-0.182899997,-0.243900001
1.018000007,110,-0.0066,-0.216800004,4.917600155,0.243900001,-0.182899997,-0.243900001
1.027999997,111,-0.0096,-0.2491,4.914000034,0.243900001,-0.182899997,-0.243900001
1.031000018,112,-0.0096,-0.2491,4.914000034,0.243900001,-0.182899997,-0.243900001
1.044999957,113,-0.0096,-0.271800011,4.916999817,0.304899991,-0.243900001,-0.243900001
1.049000025,114,-0.0096,-0.271800011,4.916999817,0.304899991,-0.243900001,-0.243900001
1.065000057,115,-0.009,-0.283800006,4.922399998,0.365799993,-0.243900001,-0.243900001
1.072999954,116,-0.009,-0.292199999,4.9302001,0.426800013,-0.243900001,-0.243900001
1.077000022,117,-0.009,-0.292199999,4.9302001,0.426800013,-0.243900001,-0.243900001
1.087000012,118,-0.0114,-0.301200002,4.929599762,0.426800013,-0.243900001,-0.304899991
1.090999961,119,-0.0114,-0.301200002,4.929599762,0.426800013,-0.243900001,-0.304899991
1.101999998,120,-0.0156,-0.303600013,4.936100006,0.487800002,-0.243900001,-0.304899991
1.105999947,121,-0.0156,-0.303600013,4.936100006,0.487800002,-0.243900001,-0.304899991
1.125,122,-0.0174,-0.294,4.954100132,0.487800002,-0.243900001,-0.304899991
1.133000016,123,-0.0186,-0.284399986,4.97149992,0.487800002,-0.243900001,-0.304899991
1.136000037,124,-0.0186,-0.284399986,4.97149992,0.487800002,-0.243900001,-0.304899991
1.146000028,125,-0.023399999,-0.282000005,4.977399826,0.487800002,-0.304899991,-0.304899991
1.149999976,126,-0.023399999,-0.282000005,4.977399826,0.487800002,-0.304899991,-0.304899991
1.159999967,127,-0.023399999,-0.282000005,4.977399826,0.487800002,-0.304899991,-0.304899991
1.167999983,128,-0.032299999,-0.287400007,4.984600067,0.487800002,-0.304899991,-0.304899991
1.177000046,129,-0.0407,-0.298799992,5.006800175,0.548799992,-0.304899991,-0.304899991
1.180999994,130,-0.0407,-0.298799992,5.006800175,0.548799992,-0.304899991,-0.304899991
1.195000052,131,-0.049699999,-0.309599996,5.024199963,0.548799992,-0.304899991,-0.304899991
1.199000001,132,-0.049699999,-0.309599996,5.024199963,0.548799992,-0.304899991,-0.304899991
1.215000033,133,-0.050900001,-0.308999985,5.046299934,0.609799981,-0.304899991,-0.304899991
1.22300005,134,-0.0557,-0.308400005,5.070300102,0.609799981,-0.365799993,-0.243900001
1.226999998,135,-0.0557,-0.308400005,5.070300102,0.609799981,-0.365799993,-0.243900001
1.245000005,136,-0.066500001,-0.313199997,5.093599796,0.609799981,-0.365799993,-0.243900001
1.253000021,137,-0.068300001,-0.329899997,5.112800121,0.609799981,-0.365799993,-0.243900001
1.256999969,138,-0.068300001,-0.329899997,5.112800121,0.609799981,-0.365799993,-0.243900001
1.26699996,139,-0.065300003,-0.347299993,5.12650013,0.670700014,-0.426800013,-0.182899997
1.271000028,140,-0.065300003,-0.347299993,5.12650013,0.670700014,-0.426800013,-0.182899997
1.284999967,141,-0.062899999,-0.358599991,5.127699852,0.670700014,-0.426800013,-0.182899997
1.289000034,142,-0.062899999,-0.358599991,5.127699852,0.670700014,-0.426800013,-0.182899997
1.304999948,143,-0.0515,-0.366400003,5.132500172,0.670700014,-0.426800013,-0.182899997
1.31400001,144,-0.046100002,-0.389200002,5.140900135,0.670700014,-0.426800013,-0.122000001
1.317999959,145,-0.046100002,-0.389200002,5.140900135,0.670700014,-0.426800013,-0.122000001
1.332000017,146,-0.044300001,-0.412499994,5.163700104,0.670700014,-0.426800013,-0.122000001
1.335999966,147,-0.044300001,-0.412499994,5.163700104,0.670700014,-0.426800013,-0.122000001
1.34800005,148,-0.050900001,-0.431699991,5.19299984,0.731700003,-0.426800013,-0.122000001
1.356999993,149,-0.067699999,-0.444299996,5.227099895,0.731700003,-0.487800002,-0.061000001
1.360999942,150,-0.067699999,-0.444299996,5.227099895,0.731700003,-0.487800002,-0.061000001
1.375,151,-0.074199997,-0.465799987,5.252900124,0.731700003,-0.487800002,0
1.378999949,152,-0.074199997,-0.465799987,5.252900124,0.731700003,-0.487800002,0
1.394999981,153,-0.069499999,-0.489199996,5.277999878,0.670700014,-0.487800002,0.061000001
1.402999997,154,-0.071199998,-0.520900011,5.316299915,0.670700014,-0.487800002,0.061000001
1.406999946,155,-0.071199998,-0.520900011,5.316299915,0.670700014,-0.487800002,0.061000001
1.424999952,156,-0.082000002,-0.552600026,5.375,0.670700014,-0.548799992,0.122000001
1.434000015,157,-0.087399997,-0.575999975,5.430699825,0.853699982,-0.670700014,0.182899997
1.437999964,158,-0.087399997,-0.575999975,5.430699825,0.853699982,-0.670700014,0.182899997
1.455000043,159,-0.085600004,-0.568199992,5.447500229,0.975600004,-0.731700003,0.243900001
1.463000059,160,-0.094599999,-0.549700022,5.44990015,1.097599983,-0.792699993,0.304899991
1.465999961,161,-0.094599999,-0.549700022,5.44990015,1.097599983,-0.792699993,0.304899991
1.476999998,162,-0.123300001,-0.529299974,5.447500229,1.280500054,-0.853699982,0.365799993
1.480999947,163,-0.123300001,-0.529299974,5.447500229,1.280500054,-0.853699982,0.365799993
1.495000005,164,-0.1611,-0.467000008,5.438499928,1.341500044,-0.853699982,0.487800002
1.498999953,165,-0.1611,-0.467000008,5.438499928,1.341500044,-0.853699982,0.487800002
1.514999986,166,-0.181400001,-0.405400008,5.434899807,1.219499946,-0.914600015,0.548799992
1.523000002,167,-0.189199999,-0.38440001,5.44810009,1.463400006,-0.853699982,0.670700014
1.52699995,168,-0.189199999,-0.38440001,5.44810009,1.463400006,-0.853699982,0.670700014
1.546000004,169,-0.1928,-0.387400001,5.483399868,1.524399996,-0.792699993,0.731700003
1.554999948,170,-0.210800007,-0.409000009,5.53910017,1.524399996,-0.792699993,0.792699993
1.559000015,171,-0.210800007,-0.409000009,5.53910017,1.524399996,-0.792699993,0.792699993
1.575000048,172,-0.238299996,-0.429899991,5.596000195,1.463400006,-0.731700003,0.853699982
1.583999991,173,-0.281399995,-0.431100011,5.645699978,1.341500044,-0.731700003,0.792699993
1.588000059,174,-0.281399995,-0.431100011,5.645699978,1.341500044,-0.731700003,0.792699993
1.605000019,175,-0.337700009,-0.436500013,5.67320013,1.463400006,-0.792699993,0.731700003
1.613999963,176,-0.364600003,-0.464599997,5.675000191,1.463400006,-0.853699982,0.609799981
1.618000031,177,-0.364600003,-0.464599997,5.675000191,1.463400006,-0.853699982,0.609799981
1.63499999,178,-0.356900007,-0.497000009,5.663599968,1.463400006,-1.036599994,0.487800002
1.75,190,0.123899996,-0.670599997,5.724699974,2.378000021,-0.853699982,-0.061000001
1.753999949,191,0.123899996,-0.670599997,5.724699974,2.378000021,-0.853699982,-0.061000001
1.774999976,192,0.129299998,-0.675400019,5.75579977,2.195100069,-0.853699982,-0.243900001
1.782999992,193,0.127499998,-0.591600001,5.739099979,2.012200117,-0.853699982,-0.365799993
1.786999941,194,0.127499998,-0.591600001,5.739099979,2.012200117,-0.853699982,-0.365799993
1.804999948,195,0.119199999,-0.481400013,5.746200085,1.890200019,-0.853699982,-0.487800002
1.812999964,196,0.104800001,-0.359800011,5.779799938,2.073199987,-0.609799981,-0.548799992
1.817000031,197,0.104800001,-0.359800011,5.779799938,2.073199987,-0.609799981,-0.548799992
1.832999945,198,0.086199999,-0.246099994,5.825900078,2.012200117,-0.609799981,-0.548799992
1.840999961,199,0.077200003,-0.183799997,5.859399796,1.951200008,-0.548799992,-0.548799992
1.845000029,200,0.077200003,-0.183799997,5.859399796,1.951200008,-0.548799992,-0.548799992
1.86500001,201,0.089199997,-0.131099999,5.865399837,1.707299948,-0.548799992,-0.609799981
1.873000026,202,0.134100005,-0.065300003,5.867800236,1.524399996,-0.548799992,-0.670700014
1.876999974,203,0.134100005,-0.065300003,5.867800236,1.524399996,-0.548799992,-0.670700014
1.891000032,204,0.189799994,-0.0036,5.893000126,1.280500054,-0.548799992,-0.792699993
1.899999976,205,0.232299998,0.0473,5.949200153,0.975600004,-0.609799981,-0.853699982
1.904000044,206,0.232299998,0.0473,5.949200153,0.975600004,-0.609799981,-0.853699982
1.924999952,207,0.232899994,0.0647,6.046199799,0.792699993,-0.670700014,-0.853699982
1.934000015,208,0.220899999,0.082599998,6.153399944,0.792699993,-0.670700014,-0.792699993
1.942000031,209,0.207800001,0.100599997,6.248000145,0.792699993,-0.609799981,-0.731700003
1.94599998,210,0.207800001,0.100599997,6.248000145,0.792699993,-0.609799981,-0.731700003
1.960000038,211,0.207800001,0.100599997,6.248000145,0.792699993,-0.609799981,-0.731700003
1.968000054,212,0.232299998,0.110200003,6.314499855,0.914600015,-0.548799992,-0.731700003
1.975999951,213,0.248500004,0.136500001,6.338399887,0.914600015,-0.609799981,-0.731700003
1.978999972,214,0.248500004,0.136500001,6.338399887,0.914600015,-0.609799981,-0.731700003
1.991999984,215,0.228100002,0.194600001,6.363599777,0.731700003,-0.609799981,-0.609799981
1.996000051,216,0.228100002,0.194600001,6.363599777,0.731700003,-0.609799981,-0.609799981
2.006999969,217,0.228100002,0.219699994,6.405499935,0.609799981,-0.792699993,-0.548799992
2.010999918,218,0.228100002,0.219699994,6.405499935,0.609799981,-0.792699993,-0.548799992
2.019999981,219,0.248500004,0.210800007,6.414500237,0.487800002,-1.036599994,-0.548799992
2.023999929,220,0.248500004,0.210800007,6.414500237,0.487800002,-1.036599994,-0.548799992
2.046999931,221,0.303600013,0.181999996,6.451000214,0.426800013,-1.158499956,-0.548799992
2.055999994,222,0.325700015,0.141900003,6.547999859,0.487800002,-0.914600015,-0.487800002
2.063999891,223,0.282000005,0.143099993,6.646800041,0.670700014,-0.792699993,-0.304899991
2.068000078,224,0.282000005,0.143099993,6.646800041,0.670700014,-0.792699993,-0.304899991
2.085000038,225,0.243100002,0.175999999,6.702499866,0.548799992,-0.609799981,-0.122000001
2.094000101,226,0.282000005,0.229300007,6.706099987,0.487800002,-0.670700014,-0.122000001
2.09800005,227,0.282000005,0.229300007,6.706099987,0.487800002,-0.670700014,-0.122000001
2.11500001,228,0.333499998,0.228100002,6.684500217,0.365799993,-0.609799981,-0.182899997
2.122999907,229,0.355699986,0.232299998,6.64440012,-0.061000001,-0.487800002,-0.243900001
2.127000093,230,0.355699986,0.232299998,6.64440012,-0.061000001,-0.487800002,-0.243900001
2.144999981,231,0.380199999,0.219699994,6.611999989,-0.487800002,-0.426800013,-0.365799993
2.153000116,232,0.38440001,0.170599997,6.618000031,-0.670700014,-0.182899997,-0.426800013
2.157000065,233,0.38440001,0.170599997,6.618000031,-0.670700014,-0.182899997,-0.426800013
2.167999983,234,0.331099987,0.1096,6.654600143,-0.914600015,0.122000001,-0.426800013
2.171999931,235,0.331099987,0.1096,6.654600143,-0.914600015,0.122000001,-0.426800013
2.181999922,236,0.189799994,-0.034699999,6.775499821,-0.792699993,0.243900001,-0.365799993
2.186000109,237,0.189799994,-0.034699999,6.775499821,-0.792699993,0.243900001,-0.365799993
2.190999985,238,0.189799994,-0.034699999,6.775499821,-0.792699993,0.243900001,-0.365799993
2.204999924,239,0.052700002,-0.193399996,6.945000172,-0.487800002,0.304899991,-0.243900001
2.213000059,240,-0.148499995,-0.332899988,6.992899895,-0.609799981,0.914600015,-0.122000001
2.217000008,241,-0.148499995,-0.332899988,6.992899895,-0.609799981,0.914600015,-0.122000001
2.230999947,242,-0.38499999,-0.50059998,6.930600166,-0.853699982,1.463400006,-0.243900001
2.233999968,243,-0.38499999,-0.50059998,6.930600166,-0.853699982,1.463400006,-0.243900001
2.321000099,252,0.131099999,-0.362199992,5.734899998,0.609799981,1.463400006,0.548799992
2.325000048,253,0.131099999,-0.362199992,5.734899998,0.609799981,1.463400006,0.548799992
2.345000029,254,0.348500013,-0.547900021,5.362999916,0.548799992,1.951200008,0.548799992
2.352999926,255,0.285600007,-0.807699978,5.348100185,0.609799981,2.012200117,0.365799993
2.357000113,256,0.285600007,-0.807699978,5.348100185,0.609799981,2.012200117,0.365799993
2.375,257,0.134100005,-0.94660002,5.463600159,0.670700014,1.585399985,0.304899991
2.382999897,258,0.054499999,-0.948400021,5.507999897,0.670700014,1.341500044,0.182899997
2.385999918,259,0.054499999,-0.948400021,5.507999897,0.670700014,1.341500044,0.182899997
2.398999929,260,-0.0096,-0.903500021,5.478000164,0.670700014,1.219499946,0.122000001
2.40199995,261,-0.0096,-0.903500021,5.478000164,0.670700014,1.219499946,0.122000001
2.414999962,262,-0.067100003,-0.839999974,5.434899807,0.792699993,1.341500044,0.182899997
2.423000097,263,-0.073600002,-0.771200001,5.379799843,0.975600004,1.219499946,0.304899991
2.427000046,264,-0.073600002,-0.771200001,5.379799843,0.975600004,1.219499946,0.304899991
2.440000057,265,-0.073600002,-0.771200001,5.379799843,0.975600004,1.219499946,0.304899991
2.448999882,266,-0.039500002,-0.722100019,5.296599865,1.280500054,1.158499956,0.426800013
2.457999945,267,0.0228,-0.691600025,5.198999882,1.585399985,1.219499946,0.548799992
2.460000038,268,0.0228,-0.691600025,5.198999882,1.585399985,1.219499946,0.548799992
2.470999956,269,0.092200004,-0.719699979,5.138500214,1.707299948,1.341500044,0.548799992
2.474999905,270,0.092200004,-0.719699979,5.138500214,1.707299948,1.341500044,0.548799992
2.486000061,271,0.135299996,-0.785000026,5.133699894,2.012200117,1.402400017,0.426800013
2.49000001,272,0.135299996,-0.785000026,5.133699894,2.012200117,1.402400017,0.426800013
2.505000114,273,0.128099993,-0.824500024,5.205599785,2.073199987,1.097599983,0.365799993
2.513000011,274,0.080200002,-0.744199991,5.205599785,2.195100069,0.914600015,0.304899991
2.51699996,275,0.080200002,-0.744199991,5.205599785,2.195100069,0.914600015,0.304899991
2.529999971,276,0.080200002,-0.744199991,5.205599785,2.195100069,0.914600015,0.304899991
2.538000107,277,0.0305,-0.582000017,5.149300098,2.256099939,0.853699982,0.243900001
2.546999931,278,-0.0222,-0.386200011,5.077400208,2.256099939,0.731700003,0.243900001
2.551000118,279,-0.0222,-0.386200011,5.077400208,2.256099939,0.731700003,0.243900001
2.565999985,280,-0.052099999,-0.188600004,5.012199879,2.134200096,0.609799981,0.182899997
2.573999882,281,-0.063500002,0.0018,4.964300156,1.951200008,0.487800002,0.182899997
2.578000069,282,-0.063500002,0.0018,4.964300156,1.951200008,0.487800002,0.182899997
2.595000029,283,-0.072400004,0.165299997,4.914000034,1.890200019,0.487800002,0.243900001
2.604000092,284,-0.075400002,0.305999994,4.876900196,1.768300056,0.548799992,0.243900001
2.60800004,285,-0.075400002,0.305999994,4.876900196,1.768300056,0.548799992,0.243900001
2.625,286,-0.037099998,0.391000003,4.87869978,1.463400006,0.548799992,0.304899991
2.632999897,287,-0.0144,0.350899994,4.926000118,1.402400017,0.548799992,0.304899991
2.637000084,288,-0.0144,0.350899994,4.926000118,1.402400017,0.548799992,0.304899991
2.654999971,289,-0.0138,0.287400007,4.949299812,1.341500044,0.670700014,0.304899991
2.663000107,290,-0.032900002,0.191599995,4.982200146,1.280500054,0.731700003,0.243900001
2.667000055,291,-0.032900002,0.191599995,4.982200146,1.280500054,0.731700003,0.243900001
2.680000067,292,-0.032900002,0.191599995,4.982200146,1.280500054,0.731700003,0.243900001
2.687999964,293,-0.050900001,0.066500001,5.03429985,1.280500054,0.731700003,0.243900001
2.697000027,294,-0.062899999,-0.056299999,5.07859993,1.280500054,0.670700014,0.182899997
2.700999975,295,-0.062899999,-0.056299999,5.07859993,1.280500054,0.670700014,0.182899997
2.714999914,296,-0.082599998,-0.152099997,5.092400074,1.341500044,0.609799981,0.122000001
2.72300005,297,-0.077799998,-0.194000006,5.071499825,1.341500044,0.548799992,0.061000001
2.726999998,298,-0.077799998,-0.194000006,5.071499825,1.341500044,0.548799992,0.061000001
2.74000001,299,-0.077799998,-0.194000006,5.071499825,1.341500044,0.548799992,0.061000001
2.747999907,300,-0.071199998,-0.253899992,5.053500175,1.585399985,0.548799992,0.061000001
2.756000042,301,-0.079599999,-0.322699994,5.030099869,1.707299948,0.548799992,0.061000001
2.759000063,302,-0.079599999,-0.322699994,5.030099869,1.707299948,0.548799992,0.061000001
2.770999908,303,-0.075999998,-0.386799991,5.022999763,1.951200008,0.487800002,0
2.775000095,304,-0.075999998,-0.386799991,5.022999763,1.951200008,0.487800002,0
2.795000076,305,-0.061700001,-0.405400008,4.999599934,2.134200096,0.426800013,-0.061000001
2.802999973,306,-0.055100001,-0.3838,4.961900234,2.073199987,0.365799993,-0.061000001
2.806999922,307,-0.055100001,-0.3838,4.961900234,2.073199987,0.365799993,-0.061000001
2.825000048,308,-0.065899998,-0.386200011,4.983399868,2.256099939,0.243900001,-0.061000001
2.832999945,309,-0.103600003,-0.359800011,5.02120018,2.621999979,0.061000001,-0.061000001
2.836999893,310,-0.103600003,-0.359800011,5.02120018,2.621999979,0.061000001,-0.061000001
2.855000019,311,-0.139500007,-0.304800004,5.034900188,3.048799992,0,0.061000001
2.862999916,312,-0.149700001,-0.196999997,4.997200012,3.170700073,-0.122000001,0.061000001
2.867000103,313,-0.149700001,-0.196999997,4.997200012,3.170700073,-0.122000001,0.061000001
2.88499999,314,-0.105400003,-0.043699998,4.961299896,2.987799883,-0.061000001,0.122000001
2.894000053,315,-0.066500001,0.080200002,4.985799789,2.743900061,0.122000001,0.182899997
2.897000074,316,-0.066500001,0.080200002,4.985799789,2.743900061,0.122000001,0.182899997
2.915999889,317,-0.0066,0.187999994,5.049900055,2.743900061,0.243900001,0.243900001
2.924999952,318,0.052700002,0.279000014,5.070300102,2.743900061,0.243900001,0.304899991
2.928999901,319,0.052700002,0.279000014,5.070300102,2.743900061,0.243900001,0.304899991
2.944999933,320,0.080799997,0.346100003,5.054699898,2.438999891,0.304899991,0.243900001
2.953000069,321,0.071199998,0.382600009,5.054100037,2.134200096,0.365799993,0.182899997
2.957000017,322,0.071199998,0.382600009,5.054100037,2.134200096,0.365799993,0.182899997
2.969000101,323,0.045499999,0.422100008,5.081600189,1.707299948,0.365799993,0
2.97300005,324,0.045499999,0.422100008,5.081600189,1.707299948,0.365799993,0
2.994999886,325,0.0078,0.401800007,5.152299881,1.463400006,0.304899991,-0.061000001
3.003000021,326,-0.025800001,0.355100006,5.204400063,1.463400006,0.304899991,-0.122000001
3.012000084,327,-0.052700002,0.320300013,5.212200165,1.585399985,0.426800013,-0.122000001
3.016000032,328,-0.052700002,0.320300013,5.212200165,1.585399985,0.426800013,-0.122000001
3.026000023,329,-0.041299999,0.283199996,5.197800159,1.646299958,0.487800002,-0.122000001
3.029000044,330,-0.041299999,0.283199996,5.197800159,1.646299958,0.487800002,-0.122000001
3.045000076,331,-0.024,0.228100002,5.233099937,1.707299948,0.548799992,-0.182899997
3.049000025,332,-0.024,0.228100002,5.233099937,1.707299948,0.548799992,-0.182899997
3.065000057,333,-0.0096,0.189199999,5.268400192,1.829300046,0.487800002,-0.243900001
3.072999954,334,0.0006,0.1778,5.293600082,2.073199987,0.426800013,-0.243900001
3.075999975,335,0.0006,0.1778,5.293600082,2.073199987,0.426800013,-0.243900001
3.085999966,336,0.019200001,0.201199993,5.294799805,2.195100069,0.426800013,-0.182899997
3.089999914,337,0.019200001,0.201199993,5.294799805,2.195100069,0.426800013,-0.182899997
3.101000071,338,0.021,0.245499998,5.263100147,2.256099939,0.426800013,-0.182899997
3.105000019,339,0.021,0.245499998,5.263100147,2.256099939,0.426800013,-0.182899997
3.117000103,340,0.0305,0.313800007,5.197199821,2.195100069,0.487800002,-0.122000001
3.121000051,341,0.0305,0.313800007,5.197199821,2.195100069,0.487800002,-0.122000001
3.13499999,342,0.053300001,0.334699988,5.158899784,2.134200096,0.670700014,-0.061000001
3.138999939,343,0.053300001,0.334699988,5.158899784,2.134200096,0.670700014,-0.061000001
3.154999971,344,0.084399998,0.29519999,5.19659996,2.073199987,0.731700003,-0.061000001
3.163000107,345,0.099399999,0.236499995,5.231299877,2.134200096,0.731700003,-0.122000001
3.167000055,346,0.099399999,0.236499995,5.231299877,2.134200096,0.731700003,-0.122000001
3.184999943,347,0.098800004,0.189799994,5.229499817,2.256099939,0.609799981,-0.243900001
3.193000078,348,0.088,0.172399998,5.17140007,2.134200096,0.487800002,-0.365799993
3.197000027,349,0.088,0.172399998,5.17140007,2.134200096,0.487800002,-0.365799993
3.211999893,350,0.0766,0.184400007,5.10860014,1.951200008,0.426800013,-0.426800013
3.220999956,351,0.071199998,0.2245,5.030700207,1.768300056,0.548799992,-0.487800002
3.224999905,352,0.071199998,0.2245,5.030700207,1.768300056,0.548799992,-0.487800002
3.240999937,353,0.073600002,0.252700001,4.976799965,1.707299948,0.609799981,-0.426800013
3.25,354,0.069499999,0.253899992,4.988800049,1.707299948,0.670700014,-0.365799993
3.253000021,355,0.069499999,0.253899992,4.988800049,1.707299948,0.670700014,-0.365799993
3.266000032,356,0.0359,0.190400004,5.065499783,1.707299948,0.792699993,-0.243900001
3.269000053,357,0.0359,0.190400004,5.065499783,1.707299948,0.792699993,-0.243900001
3.285000086,358,-0.0275,0.070600003,5.1947999,1.707299948,0.731700003,-0.243900001
3.289000034,359,-0.0275,0.070600003,5.1947999,1.707299948,0.731700003,-0.243900001
3.299999952,360,-0.055100001,-0.057500001,5.274400234,1.768300056,0.670700014,-0.304899991
3.302000046,361,-0.055100001,-0.057500001,5.274400234,1.768300056,0.670700014,-0.304899991
3.312999964,362,-0.058699999,-0.1162,5.237299919,1.707299948,0.548799992,-0.304899991
3.316999912,363,-0.058699999,-0.1162,5.237299919,1.707299948,0.548799992,-0.304899991
3.335000038,364,-0.103600003,-0.152099997,5.086999893,1.402400017,0.365799993,-0.243900001
3.344000101,365,-0.263399988,-0.156900004,4.921199799,1.036599994,0.061000001,-0.122000001
3.345999956,366,-0.263399988,-0.156900004,4.921199799,1.036599994,0.061000001,-0.122000001
3.36500001,367,-0.501800001,-0.106600001,4.812799931,0.853699982,-0.182899997,0
3.372999907,368,-0.743600011,-0.090400003,4.76429987,0.731700003,-0.243900001,0.182899997
3.375999928,369,-0.743600011,-0.090400003,4.76429987,0.731700003,-0.243900001,0.182899997
3.394999981,370,-0.909500003,-0.202999994,4.7427001,0.914600015,-0.243900001,0.304899991
3.403000116,371,-0.911300004,-0.470600009,4.668499947,1.463400006,-0.122000001,0.365799993
3.407000065,372,-0.911300004,-0.470600009,4.668499947,1.463400006,-0.122000001,0.365799993
3.424999952,373,-0.79339999,-0.804099977,4.573900223,1.646299958,0,0.304899991
3.434000015,374,-0.663999975,-1.105900049,4.536200047,1.524399996,-0.243900001,0.122000001
3.437999964,375,-0.663999975,-1.105900049,4.536200047,1.524399996,-0.243900001,0.122000001
3.454999924,376,-0.563399971,-1.252599955,4.579899788,1.585399985,-0.548799992,-0.061000001
3.463000059,377,-0.47420001,-1.193300009,4.658299923,1.829300046,-0.670700014,-0.243900001
3.467000008,378,-0.47420001,-1.193300009,4.658299923,1.829300046,-0.670700014,-0.243900001
3.482000113,379,-0.368200004,-0.984399974,4.706200123,1.890200019,-0.914600015,-0.365799993
3.490999937,380,-0.258100003,-0.738300025,4.674499989,1.585399985,-1.036599994,-0.487800002
3.494999886,381,-0.258100003,-0.738300025,4.674499989,1.585399985,-1.036599994,-0.487800002
3.515000105,382,-0.149100006,-0.534099996,4.594799995,1.036599994,-1.036599994,-0.548799992
3.542000055,385,0.0018,-0.335900009,4.618800163,0.426800013,-0.975600004,-0.670700014
3.549999952,386,0.041900001,-0.288599998,4.739699841,0.365799993,-1.097599983,-0.731700003
3.553999901,387,0.041900001,-0.288599998,4.739699841,0.365799993,-1.097599983,-0.731700003
3.569999933,388,0.041900001,-0.288599998,4.739699841,0.365799993,-1.097599983,-0.731700003
3.578000069,389,0.061099999,-0.287999988,4.892399788,0.426800013,-1.219499946,-0.670700014
3.585999966,390,0.047899999,-0.34009999,5.046899796,0.548799992,-1.402400017,-0.609799981
3.589999914,391,0.047899999,-0.34009999,5.046899796,0.548799992,-1.402400017,-0.609799981
3.605000019,392,0.0138,-0.442499995,5.181000233,0.731700003,-1.768300056,-0.609799981
3.614000082,393,-0.019200001,-0.570599973,5.275000095,0.853699982,-2.134200096,-0.487800002
3.618000031,394,-0.019200001,-0.570599973,5.275000095,0.853699982,-2.134200096,-0.487800002
3.630000114,395,-0.0425,-0.6778,5.326499939,0.853699982,-2.438999891,-0.487800002
3.634000063,396,-0.0425,-0.6778,5.326499939,0.853699982,-2.438999891,-0.487800002
3.654999971,397,-0.038899999,-0.754400015,5.318099976,0.853699982,-2.621999979,-0.487800002
3.703000069,402,0.124499999,-0.672999978,5.129499912,1.219499946,-2.621999979,-0.304899991
3.707000017,403,0.124499999,-0.672999978,5.129499912,1.219499946,-2.621999979,-0.304899991
3.717000008,404,0.098800004,-0.601800025,5.088200092,1.097599983,-2.438999891,-0.182899997
3.720999956,405,0.098800004,-0.601800025,5.088200092,1.097599983,-2.438999891,-0.182899997
3.732000113,406,0.063500002,-0.56279999,5.091800213,0.975600004,-2.195100069,-0.122000001
3.736000061,407,0.063500002,-0.56279999,5.091800213,0.975600004,-2.195100069,-0.122000001
3.755000114,408,0.0162,-0.573000014,5.158899784,0.853699982,-1.951200008,0
3.763000011,409,-0.0012,-0.624499977,5.264200211,0.670700014,-1.768300056,0.061000001
3.76699996,410,-0.0012,-0.624499977,5.264200211,0.670700014,-1.768300056,0.061000001
3.785000086,411,0.031099999,-0.612500012,5.360599995,-0.061000001,-1.646299958,0.061000001
3.792999983,412,0.0766,-0.569400012,5.41809988,-0.792699993,-1.463400006,0
3.796999931,413,0.0766,-0.569400012,5.41809988,-0.792699993,-1.463400006,0
3.815000057,414,0.143099993,-0.566399992,5.486400127,-0.914600015,-1.036599994,0
3.822999954,415,0.194000006,-0.555599988,5.525899887,-1.097599983,-0.670700014,0
3.826999903,416,0.194000006,-0.555599988,5.525899887,-1.097599983,-0.670700014,0
3.845000029,417,0.207800001,-0.559800029,5.586999893,-1.280500054,-0.365799993,-0.061000001
3.854000092,418,0.207800001,-0.576600015,5.662399769,-1.463400006,-0.122000001,-0.122000001
3.85800004,419,0.207800001,-0.576600015,5.662399769,-1.463400006,-0.122000001,-0.122000001
3.875,420,0.212599993,-0.566999972,5.70909977,-1.707299948,0.061000001,-0.182899997
3.884000063,421,0.232299998,-0.519699991,5.711500168,-2.256099939,0.243900001,-0.243900001
3.888000011,422,0.232299998,-0.519699991,5.711500168,-2.256099939,0.243900001,-0.243900001
3.976999998,431,-0.0539,-0.852599978,6.089300156,-2.561000109,-0.426800013,-0.243900001
3.987999916,432,-0.059300002,-0.835900009,6.197100163,-2.682899952,-0.365799993,-0.243900001
3.992000103,433,-0.059300002,-0.835900009,6.197100163,-2.682899952,-0.365799993,-0.243900001
4.005000114,434,-0.107799999,-0.753799975,6.380899906,-2.682899952,-0.426800013,-0.122000001
4.007999897,435,-0.107799999,-0.753799975,6.380899906,-2.682899952,-0.426800013,-0.122000001
4.025000095,436,-0.183200002,-0.598200023,6.623400211,-2.317100048,-0.670700014,0.061000001
4.035999775,437,-0.210800007,-0.448500007,6.827600002,-1.768300056,-1.036599994,0.304899991
4.039000034,438,-0.210800007,-0.448500007,6.827600002,-1.768300056,-1.036599994,0.304899991
4.048999786,439,-0.196999997,-0.322100013,6.886899948,-1.341500044,-1.280500054,0.548799992
4.052999973,440,-0.196999997,-0.322100013,6.886899948,-1.341500044,-1.280500054,0.548799992
4.06400013,441,-0.195800006,-0.229900002,6.831799984,-0.975600004,-1.463400006,0.792699993
4.06799984,442,-0.195800006,-0.229900002,6.831799984,-0.975600004,-1.463400006,0.792699993
4.080999851,443,-0.196999997,-0.164700001,6.730000019,-0.853699982,-1.463400006,0.853699982
4.085000038,444,-0.196999997,-0.164700001,6.730000019,-0.853699982,-1.463400006,0.853699982
4.096000195,445,-0.193399996,-0.135900006,6.609700203,-0.792699993,-1.402400017,0.914600015
4.099999905,446,-0.193399996,-0.135900006,6.609700203,-0.792699993,-1.402400017,0.914600015
4.110000134,447,-0.213200003,-0.124499999,6.52519989,-0.609799981,-1.463400006,1.036599994
4.113999844,448,-0.213200003,-0.124499999,6.52519989,-0.609799981,-1.463400006,1.036599994
4.125,449,-0.209600002,-0.117399998,6.447999954,-0.426800013,-1.524399996,1.158499956
4.129000187,450,-0.209600002,-0.117399998,6.447999954,-0.426800013,-1.524399996,1.158499956
4.144999981,451,-0.170000002,-0.119199999,6.355800152,-0.365799993,-1.524399996,1.219499946
4.153999805,452,-0.095799997,-0.043099999,6.16960001,-1.158499956,-1.341500044,1.341500044
4.157999992,453,-0.095799997,-0.043099999,6.16960001,-1.158499956,-1.341500044,1.341500044
4.175000191,454,0.021,-0.023399999,5.997700214,-1.524399996,-1.158499956,1.402400017
4.184000015,455,0.156299993,-0.0132,5.861199856,-1.646299958,-0.914600015,1.341500044
4.188000202,456,0.156299993,-0.0132,5.861199856,-1.646299958,-0.914600015,1.341500044
4.204999924,457,0.275999993,0.028100001,5.757599831,-1.707299948,-0.609799981,1.280500054
4.214000225,458,0.33829999,0.0832,5.71089983,-1.707299948,-0.487800002,1.219499946
4.217999935,459,0.33829999,0.0832,5.71089983,-1.707299948,-0.487800002,1.219499946
4.235000134,460,0.362199992,0.139500007,5.6947999,-1.646299958,-0.365799993,1.219499946
4.243999958,461,0.360399991,0.159299999,5.724699974,-1.768300056,-0.243900001,1.219499946
4.248000145,462,0.360399991,0.159299999,5.724699974,-1.768300056,-0.243900001,1.219499946
4.264999866,463,0.379599988,0.097599998,5.809700012,-1.951200008,-0.365799993,1.097599983
4.272999763,464,0.42750001,-0.056899998,5.893499851,-2.195100069,-0.243900001,0.792699993
4.27699995,465,0.42750001,-0.056899998,5.893499851,-2.195100069,-0.243900001,0.792699993
4.295000076,466,0.442499995,-0.194600001,5.956999779,-2.378000021,-0.122000001,0.487800002
4.303999901,467,0.414299995,-0.297600001,5.989299774,-2.561000109,0.061000001,0.365799993
4.308000088,468,0.414299995,-0.297600001,5.989299774,-2.561000109,0.061000001,0.365799993
4.324999809,469,0.350899994,-0.372399986,6.023499966,-2.621999979,0.122000001,0.365799993
4.334000111,470,0.284999996,-0.420300007,6.069600105,-2.561000109,0.243900001,0.365799993
4.337999821,471,0.284999996,-0.420300007,6.069600105,-2.561000109,0.243900001,0.365799993
4.355000019,472,0.240700006,-0.426899999,6.120500088,-2.438999891,0.365799993,0.365799993
4.362999916,473,0.211999997,-0.400599986,6.175600052,-2.317100048,0.487800002,0.426800013
4.367000103,474,0.211999997,-0.400599986,6.175600052,-2.317100048,0.487800002,0.426800013
4.385000229,475,0.185599998,-0.345499992,6.219900131,-2.256099939,0.670700014,0.487800002
4.394000053,476,0.162900001,-0.26879999,6.254600048,-2.195100069,0.731700003,0.487800002
4.397999763,477,0.162900001,-0.26879999,6.254600048,-2.195100069,0.731700003,0.487800002
4.414999962,478,0.166999996,-0.186800003,6.257599831,-2.073199987,0.731700003,0.548799992
4.423999786,479,0.191599995,-0.097000003,6.232999802,-2.012200117,0.731700003,0.548799992
4.427999973,480,0.191599995,-0.097000003,6.232999802,-2.012200117,0.731700003,0.548799992
4.445000172,481,0.228699997,-0.0198,6.194699764,-1.951200008,0.731700003,0.487800002
4.453000069,482,0.265799999,0.046700001,6.149199963,-2.012200117,0.670700014,0.426800013
4.456999779,483,0.265799999,0.046700001,6.149199963,-2.012200117,0.670700014,0.426800013
4.474999905,484,0.29460001,0.097000003,6.107900143,-2.134200096,0.670700014,0.426800013
4.482999802,485,0.309599996,0.126900002,6.069600105,-2.256099939,0.670700014,0.365799993
4.486999989,486,0.309599996,0.126900002,6.069600105,-2.256099939,0.670700014,0.365799993
4.505000114,487,0.312599987,0.147300005,6.041399956,-2.378000021,0.731700003,0.243900001
4.513000011,488,0.312599987,0.140100002,6.030700207,-2.438999891,0.731700003,0.243900001
4.515999794,489,0.312599987,0.140100002,6.030700207,-2.438999891,0.731700003,0.243900001
4.534999847,490,0.305999994,0.114399999,6.028900146,-2.438999891,0.792699993,0.182899997
4.544000149,491,0.287999988,0.079599999,6.025300026,-2.378000021,0.792699993,0.122000001
4.546999931,492,0.287999988,0.079599999,6.025300026,-2.378000021,0.792699993,0.122000001
4.565999985,493,0.263399988,0.040100001,6.028900146,-2.378000021,0.853699982,0.122000001
4.573999882,494,0.241899997,-0.0132,6.059400082,-2.317100048,0.914600015,0.122000001
4.578000069,495,0.241899997,-0.0132,6.059400082,-2.317100048,0.914600015,0.122000001
4.593999863,496,0.2245,-0.058699999,6.09649992,-2.195100069,0.914600015,0.182899997
4.602000237,497,0.219699994,-0.078400001,6.119900227,-2.012200117,0.975600004,0.182899997
4.605999947,498,0.219699994,-0.078400001,6.119900227,-2.012200117,0.975600004,0.182899997
4.625,499,0.237100005,-0.077200003,6.127099991,-1.768300056,1.036599994,0.182899997
4.633999825,500,0.278400004,-0.057500001,6.113900185,-1.585399985,1.036599994,0.182899997
4.638000011,501,0.278400004,-0.057500001,6.113900185,-1.585399985,1.036599994,0.182899997
4.656000137,502,0.315499991,-0.043699998,6.076200008,-1.585399985,1.036599994,0.182899997
4.664000034,503,0.323300004,-0.077799998,6.021100044,-1.585399985,1.097599983,0.182899997
4.668000221,504,0.323300004,-0.077799998,6.021100044,-1.585399985,1.097599983,0.182899997
4.684999943,505,0.191,-0.174799994,5.982800007,-1.463400006,1.219499946,0.182899997
4.693999767,506,-0.272399992,-0.344900012,5.988200188,-1.402400017,1.280500054,0.061000001
4.697999954,507,-0.272399992,-0.344900012,5.988200188,-1.402400017,1.280500054,0.061000001
4.711999893,508,-1.043599963,-0.549099982,6.038400173,-1.585399985,1.219499946,0.061000001
4.71600008,509,-1.043599963,-0.549099982,6.038400173,-1.585399985,1.219499946,0.061000001
4.735000134,510,-1.708199978,-0.744799972,6.221700191,-2.195100069,0.914600015,-0.122000001
4.743999958,511,-2.119600058,-0.741299987,6.388700008,-1.768300056,0.365799993,-0.122000001
4.751999855,512,-1.870499969,-0.483200014,6.472499847,-1.402400017,-0.365799993,0
4.756000042,513,-1.870499969,-0.483200014,6.472499847,-1.402400017,-0.365799993,0
4.775000095,514,-1.254999995,-0.152099997,6.076200008,-0.670700014,-0.365799993,0.182899997
4.782999992,515,-0.563399971,-0.0066,5.485799789,-0.243900001,-0.243900001,0.182899997
4.787000179,516,-0.563399971,-0.0066,5.485799789,-0.243900001,-0.243900001,0.182899997
4.804999828,517,0.155699998,-0.025800001,4.998400211,-0.061000001,-0.122000001,0.182899997
4.813000202,518,0.703499973,-0.092200004,4.731999874,-0.304899991,0.365799993,0.061000001
4.816999912,519,0.703499973,-0.092200004,4.731999874,-0.304899991,0.365799993,0.061000001
4.835000038,520,0.910099983,-0.133499995,4.703800201,-0.853699982,0.670700014,-0.182899997
4.843999863,521,0.750199974,-0.129299998,4.818200111,-1.463400006,1.036599994,-0.365799993
4.847000122,522,0.750199974,-0.129299998,4.818200111,-1.463400006,1.036599994,-0.365799993
4.864999771,523,0.435900003,-0.0006,4.886400223,-1.829300046,1.036599994,-0.426800013
4.873000145,524,0.123300001,0.123899996,4.906799793,-2.134200096,1.036599994,-0.487800002
4.876999855,525,0.123300001,0.123899996,4.906799793,-2.134200096,1.036599994,-0.487800002
4.962999821,533,-0.0162,-0.337700009,5.529500008,-1.524399996,0.426800013,-0.122000001
4.967000008,534,-0.0162,-0.337700009,5.529500008,-1.524399996,0.426800013,-0.122000001
4.971000195,535,-0.0162,-0.337700009,5.529500008,-1.524399996,0.426800013,-0.122000001
4.981999874,536,0.082599998,-0.392800003,5.390600204,-1.463400006,0.304899991,-0.122000001
4.986000061,537,0.082599998,-0.392800003,5.390600204,-1.463400006,0.304899991,-0.122000001
5.005000114,538,0.131699994,-0.380199999,5.174399853,-1.280500054,0.304899991,0
5.013000011,539,0.129899994,-0.303000003,4.950500011,-1.219499946,0.426800013,0.061000001
5.017000198,540,0.129899994,-0.303000003,4.950500011,-1.219499946,0.426800013,0.061000001
5.034999847,541,0.085000001,-0.213200003,4.828400135,-1.158499956,0.670700014,0.182899997
5.046000004,542,0.0132,-0.154499993,4.889400005,-1.097599983,0.731700003,0.182899997
5.054999828,543,-0.0425,-0.105999999,5.007400036,-0.975600004,0.731700003,0.182899997
5.059000015,544,-0.0425,-0.105999999,5.007400036,-0.975600004,0.731700003,0.182899997
5.074999809,545,-0.067100003,-0.065899998,5.071499825,-1.036599994,0.609799981,0.122000001
5.083000183,546,-0.054499999,-0.041900001,5.099599838,-1.280500054,0.426800013,0.122000001
5.086999893,547,-0.054499999,-0.041900001,5.099599838,-1.280500054,0.426800013,0.122000001
5.105000019,548,-0.0539,-0.038899999,5.083399773,-1.524399996,0.365799993,0.061000001
5.113999844,549,-0.0647,-0.0198,5.045100212,-1.707299948,0.243900001,0.061000001
5.116000175,550,-0.0647,-0.0198,5.045100212,-1.707299948,0.243900001,0.061000001
5.126999855,551,-0.083800003,0.029300001,5.022399902,-1.951200008,0.182899997,0.061000001
5.131000042,552,-0.083800003,0.029300001,5.022399902,-1.951200008,0.182899997,0.061000001
5.139999866,553,-0.083800003,0.029300001,5.022399902,-1.951200008,0.182899997,0.061000001
5.149000168,554,-0.068300001,0.043699998,5.002600193,-2.195100069,0.122000001,0
5.157999992,555,-0.050299998,0.040100001,4.942699909,-1.890200019,0.365799993,0
5.162000179,556,-0.050299998,0.040100001,4.942699909,-1.890200019,0.365799993,0
5.175000191,557,-0.0425,0.055100001,4.957099915,-1.707299948,0.365799993,0.061000001
5.178999901,558,-0.0425,0.055100001,4.957099915,-1.707299948,0.365799993,0.061000001
5.195000172,559,-0.029899999,0.088600002,4.967299938,-1.585399985,0.426800013,0
5.203999996,560,-0.040100001,0.108400002,4.979199886,-1.585399985,0.426800013,0
5.208000183,561,-0.040100001,0.108400002,4.979199886,-1.585399985,0.426800013,0
5.224999905,562,-0.0425,0.088,4.983399868,-1.768300056,0.426800013,0
5.234000206,563,-0.050299998,0.0186,4.997200012,-1.951200008,0.426800013,0
5.237999916,564,-0.050299998,0.0186,4.997200012,-1.951200008,0.426800013,0
5.255000114,565,-0.049699999,-0.0222,4.958300114,-1.890200019,0.548799992,-0.061000001
5.263000011,566,-0.0305,-0.038899999,4.945099831,-1.707299948,0.548799992,-0.122000001
5.267000198,567,-0.0305,-0.038899999,4.945099831,-1.707299948,0.548799992,-0.122000001
5.28000021,568,-0.0305,-0.038899999,4.945099831,-1.707299948,0.548799992,-0.122000001
5.289000034,569,-0.0144,-0.061700001,4.945099831,-1.585399985,0.609799981,-0.182899997
5.296999931,570,-0.0042,-0.075999998,4.938499928,-1.585399985,0.548799992,-0.243900001
5.301000118,571,-0.0042,-0.075999998,4.938499928,-1.585399985,0.548799992,-0.243900001
5.315000057,572,-0.0018,-0.080200002,4.916399956,-1.890200019,0.548799992,-0.243900001
5.322999954,573,-0.009,-0.122199997,4.92539978,-1.890200019,0.609799981,-0.243900001
5.327000141,574,-0.009,-0.122199997,4.92539978,-1.890200019,0.609799981,-0.243900001
5.336999893,575,-0.016799999,-0.172999993,4.934299946,-1.707299948,0.731700003,-0.304899991
5.34100008,576,-0.016799999,-0.172999993,4.934299946,-1.707299948,0.731700003,-0.304899991
5.349999905,577,-0.016799999,-0.172999993,4.934299946,-1.707299948,0.731700003,-0.304899991
5.359000206,578,-0.025800001,-0.205400005,4.94630003,-1.524399996,0.670700014,-0.365799993
5.362999916,579,-0.025800001,-0.205400005,4.94630003,-1.524399996,0.670700014,-0.365799993
5.385000229,580,-0.041299999,-0.204799995,4.940899849,-1.402400017,0.609799981,-0.365799993
5.388999939,581,-0.041299999,-0.204799995,4.940899849,-1.402400017,0.609799981,-0.365799993
5.40500021,582,-0.0491,-0.175999999,4.914599895,-1.280500054,0.548799992,-0.365799993
5.414000034,583,-0.0491,-0.144899994,4.89659977,-1.219499946,0.609799981,-0.365799993
5.418000221,584,-0.0491,-0.144899994,4.89659977,-1.219499946,0.609799981,-0.365799993
5.43599987,585,-0.037700001,-0.131099999,4.891799927,-1.097599983,0.609799981,-0.365799993
5.445000172,586,-0.0186,-0.147300005,4.90320015,-0.975600004,0.670700014,-0.365799993
5.448999882,587,-0.0186,-0.147300005,4.90320015,-0.975600004,0.670700014,-0.365799993
5.465000153,588,0.0018,-0.183799997,4.920599937,-0.792699993,0.731700003,-0.426800013
5.47300005,589,0.0012,-0.218600005,4.945099831,-0.548799992,0.670700014,-0.487800002
5.477000237,590,0.0012,-0.218600005,4.945099831,-0.548799992,0.670700014,-0.487800002
5.489999771,591,0.0012,-0.218600005,4.945099831,-0.548799992,0.670700014,-0.487800002
5.499000072,592,-0.016799999,-0.216800004,4.97329998,-0.243900001,0.609799981,-0.548799992
5.507999897,593,-0.036499999,-0.163499996,4.988200188,0,0.548799992,-0.548799992
5.512000084,594,-0.036499999,-0.163499996,4.988200188,0,0.548799992,-0.548799992
5.525000095,595,-0.037099998,-0.067100003,4.976799965,0.122000001,0.548799992,-0.548799992
5.532999992,596,-0.038899999,-0.0024,4.955900192,0.122000001,0.487800002,-0.487800002
5.537000179,597,-0.038899999,-0.0024,4.955900192,0.122000001,0.487800002,-0.487800002
5.540999889,598,-0.038899999,-0.0024,4.955900192,0.122000001,0.487800002,-0.487800002
5.551000118,599,-0.039500002,0.0114,4.930799961,0.182899997,0.426800013,-0.426800013
5.554999828,600,-0.039500002,0.0114,4.930799961,0.182899997,0.426800013,-0.426800013
5.574999809,601,-0.0449,0.0102,4.918200016,0.243900001,0.365799993,-0.426800013
5.584000111,602,-0.035300002,0.0114,4.873899937,0.243900001,0.365799993,-0.365799993
5.587999821,603,-0.035300002,0.0114,4.873899937,0.243900001,0.365799993,-0.365799993
5.605000019,604,-0.0264,-0.006,4.853499889,0.304899991,0.548799992,-0.365799993
5.612999916,605,-0.0287,-0.033500001,4.878099918,0.426800013,0.548799992,-0.365799993
5.617000103,606,-0.0287,-0.033500001,4.878099918,0.426800013,0.548799992,-0.365799993
5.635000229,607,-0.021,-0.026900001,4.889400005,0.487800002,0.426800013,-0.426800013
5.677000046,612,0.024599999,-0.0144,4.800199986,1.219499946,0.548799992,-0.487800002
5.696000099,613,0.0096,0.040100001,4.780499935,1.036599994,0.426800013,-0.548799992
5.703999996,614,0.0054,0.095200002,4.788199902,0.975600004,0.365799993,-0.548799992
5.708000183,615,0.0054,0.095200002,4.788199902,0.975600004,0.365799993,-0.548799992
5.724999905,616,0.0222,0.086199999,4.778100014,1.158499956,0.426800013,-0.487800002
5.734000206,617,0.0222,0.0539,4.768499851,1.158499956,0.365799993,-0.487800002
5.736000061,618,0.0222,0.0539,4.768499851,1.158499956,0.365799993,-0.487800002
5.755000114,619,0.0054,0.037099998,4.785200119,1.219499946,0.243900001,-0.487800002
5.763000011,620,-0.0012,0.056899998,4.798399925,1.341500044,0.243900001,-0.548799992
5.767000198,621,-0.0012,0.056899998,4.798399925,1.341500044,0.243900001,-0.548799992
5.785999775,622,0.0162,0.068300001,4.820600033,1.402400017,0.182899997,-0.548799992
5.794000149,623,0.0359,0.067100003,4.846300125,1.463400006,0.061000001,-0.609799981
5.797999859,624,0.0359,0.067100003,4.846300125,1.463400006,0.061000001,-0.609799981
5.815000057,625,0.034699999,0.090400003,4.839700222,1.463400006,0.061000001,-0.670700014
5.822999954,626,0.017999999,0.131699994,4.758299828,1.463400006,0.061000001,-0.731700003
5.827000141,627,0.017999999,0.131699994,4.758299828,1.463400006,0.061000001,-0.731700003
5.84499979,628,-0.0084,0.181999996,4.652299881,1.402400017,0.061000001,-0.792699993
5.854000092,629,-0.040100001,0.2359,4.538599968,1.158499956,0,-0.792699993
5.857999802,630,-0.040100001,0.2359,4.538599968,1.158499956,0,-0.792699993
5.875,631,-0.104199998,0.269400001,4.436800003,0.853699982,-0.061000001,-0.731700003
5.883999825,632,-0.219699994,0.255699992,4.369100094,0.426800013,-0.182899997,-0.670700014
5.888000011,633,-0.219699994,0.255699992,4.369100094,0.426800013,-0.182899997,-0.670700014
5.90500021,634,-0.346700013,0.207800001,4.348800182,0.122000001,-0.304899991,-0.609799981
5.914000034,635,-0.459800005,0.143700004,4.367899895,-0.182899997,-0.426800013,-0.548799992
5.915999889,636,-0.459800005,0.143700004,4.367899895,-0.182899997,-0.426800013,-0.548799992
5.934999943,637,-0.530499995,0.0162,4.394299984,-0.304899991,-0.670700014,-0.426800013
5.943999767,638,-0.54430002,-0.1479,4.459499836,-0.182899997,-0.731700003,-0.365799993
5.947999954,639,-0.54430002,-0.1479,4.459499836,-0.182899997,-0.731700003,-0.365799993
5.965000153,640,-0.509500027,-0.296999991,4.590099812,0.061000001,-0.792699993,-0.365799993
5.97300005,641,-0.401199996,-0.423900008,4.727200031,0.243900001,-0.792699993,-0.304899991
5.977000237,642,-0.401199996,-0.423900008,4.727200031,0.243900001,-0.792699993,-0.304899991
5.994999886,643,-0.247299999,-0.523299992,4.851699829,0.548799992,-0.853699982,-0.304899991
6.004000187,644,-0.064099997,-0.559199989,4.943900108,0.853699982,-0.975600004,-0.365799993
6.007999897,645,-0.064099997,-0.559199989,4.943900108,0.853699982,-0.975600004,-0.365799993
6.025000095,646,0.082599998,-0.514900029,5.022399902,1.097599983,-1.158499956,-0.426800013
6.032999992,647,0.156299993,-0.417899996,5.082799911,1.219499946,-1.280500054,-0.365799993
6.037000179,648,0.156299993,-0.417899996,5.082799911,1.219499946,-1.280500054,-0.365799993
6.054999828,649,0.165900007,-0.314999998,5.146299839,1.219499946,-1.341500044,-0.304899991
6.063000202,650,0.126900002,-0.226300001,5.202000141,1.097599983,-1.402400017,-0.243900001
6.066999912,651,0.126900002,-0.226300001,5.202000141,1.097599983,-1.402400017,-0.243900001
6.085000038,652,0.066500001,-0.149100006,5.24090004,0.914600015,-1.463400006,-0.182899997
6.092999935,653,0.0114,-0.105999999,5.281000137,0.670700014,-1.524399996,0
6.097000122,654,0.0114,-0.105999999,5.281000137,0.670700014,-1.524399996,0
6.117000103,655,-0.057500001,-0.086800002,5.336699963,0.304899991,-1.646299958,0.061000001
6.125999928,656,-0.133499995,-0.097599998,5.445099831,-0.304899991,-1.890200019,0.243900001
6.133999825,657,-0.207200006,-0.207800001,5.540299892,-0.609799981,-2.134200096,0.365799993
6.138000011,658,-0.207200006,-0.207800001,5.540299892,-0.609799981,-2.134200096,0.365799993
6.150000095,659,-0.207200006,-0.207800001,5.540299892,-0.609799981,-2.134200096,0.365799993
6.15899992,660,-0.29519999,-0.362800002,5.690599918,-0.792699993,-2.5,0.426800013
6.166999817,661,-0.34009999,-0.493400007,5.84800005,-1.036599994,-2.926800013,0.487800002
6.171000004,662,-0.34009999,-0.493400007,5.84800005,-1.036599994,-2.926800013,0.487800002
6.184000015,663,-0.332300007,-0.627499998,5.929500103,-1.036599994,-3.353699923,0.487800002
6.188000202,664,-0.332300007,-0.627499998,5.929500103,-1.036599994,-3.353699923,0.487800002
6.201000214,665,-0.290399998,-0.721499979,5.936600208,-0.792699993,-3.597599983,0.548799992
6.210000038,666,-0.242500007,-0.786800027,5.883999825,-0.731700003,-3.597599983,0.609799981
6.214000225,667,-0.242500007,-0.786800027,5.883999825,-0.731700003,-3.597599983,0.609799981
6.224999905,668,-0.256300002,-0.877200007,5.804299831,-0.426800013,-3.536600113,0.670700014
6.229000092,669,-0.256300002,-0.877200007,5.804299831,-0.426800013,-3.536600113,0.670700014
6.244999886,670,-0.307799995,-0.950800002,5.731900215,0,-3.475600004,0.670700014
6.249000072,671,-0.307799995,-0.950800002,5.731900215,0,-3.475600004,0.670700014
6.264999866,672,-0.331099987,-0.958599985,5.657000065,0.365799993,-3.414599895,0.609799981
6.272999763,673,-0.331699997,-0.918500006,5.53730011,0.426800013,-3.1098001,0.548799992
6.27699995,674,-0.331699997,-0.918500006,5.53730011,0.426800013,-3.1098001,0.548799992
6.295000076,675,-0.294,-0.896300018,5.430099964,0.731700003,-2.621999979,0.487800002
6.303999901,676,-0.241899997,-0.835300028,5.373799801,0.731700003,-2.134200096,0.426800013
6.308000088,677,-0.241899997,-0.835300028,5.373799801,0.731700003,-2.134200096,0.426800013
6.324999809,678,-0.129899994,-0.726300001,5.381599903,0.426800013,-1.707299948,0.426800013
6.334000111,679,-0.0341,-0.658599973,5.46780014,0,-1.402400017,0.365799993
6.337999821,680,-0.0341,-0.658599973,5.46780014,0,-1.402400017,0.365799993
6.349999905,681,0.068899997,-0.620899975,5.571400166,-0.304899991,-1.158499956,0.365799993
6.354000092,682,0.068899997,-0.620899975,5.571400166,-0.304899991,-1.158499956,0.365799993
6.375,683,0.188600004,-0.584399998,5.62650013,-0.426800013,-0.914600015,0.426800013
6.383999825,684,0.308400005,-0.546700001,5.600200176,-0.548799992,-0.548799992,0.426800013
6.392000198,685,0.375999987,-0.525699973,5.563600063,-0.731700003,-0.182899997,0.426800013
6.395999908,686,0.375999987,-0.525699973,5.563600063,-0.731700003,-0.182899997,0.426800013
6.414999962,687,0.398200005,-0.528699994,5.523499966,-0.853699982,0.243900001,0.365799993
6.422999859,688,0.408399999,-0.537100017,5.503200054,-1.036599994,0.609799981,0.304899991
6.427000046,689,0.408399999,-0.537100017,5.503200054,-1.036599994,0.609799981,0.304899991
6.43900013,690,0.414900005,-0.566999972,5.551099777,-1.402400017,0.975600004,0.243900001
6.44299984,691,0.414900005,-0.566999972,5.551099777,-1.402400017,0.975600004,0.243900001
6.455999851,692,0.389200002,-0.60710001,5.71449995,-1.646299958,0.914600015,0.122000001
6.465000153,693,0.319700003,-0.662800014,5.934899807,-1.707299948,0.792699993,0.061000001
6.468999863,694,0.319700003,-0.662800014,5.934899807,-1.707299948,0.792699993,0.061000001
6.485000134,695,0.209000006,-0.601800025,6.070799828,-1.768300056,0.670700014,0.061000001
6.488999844,696,0.209000006,-0.601800025,6.070799828,-1.768300056,0.670700014,0.061000001
6.5,697,0.054499999,-0.416099995,6.140200138,-2.012200117,0.731700003,0.061000001
6.504000187,698,0.054499999,-0.416099995,6.140200138,-2.012200117,0.731700003,0.061000001
6.526000023,699,-0.097000003,-0.292199999,6.263000011,-2.195100069,0.548799992,0.122000001
6.53000021,700,-0.097000003,-0.292199999,6.263000011,-2.195100069,0.548799992,0.122000001
6.540999889,701,-0.132300004,-0.127499998,6.337200165,-2.561000109,0.731700003,0.182899997
6.545000076,702,-0.132300004,-0.127499998,6.337200165,-2.561000109,0.731700003,0.182899997
6.565000057,703,-0.227500007,0.043099999,6.388100147,-2.865799904,0.122000001,0.365799993
6.572999954,704,-0.289200008,0.193399996,6.475500107,-3.1098001,-0.365799993,0.609799981
6.577000141,705,-0.289200008,0.193399996,6.475500107,-3.1098001,-0.365799993,0.609799981
6.589000225,706,-0.316700011,0.249699995,6.520999908,-3.292700052,-0.670700014,0.731700003
6.592999935,707,-0.316700011,0.249699995,6.520999908,-3.292700052,-0.670700014,0.731700003
6.614999771,708,-0.275999993,0.208399996,6.475500107,-3.231699944,-0.975600004,0.853699982
6.623000145,709,-0.165299997,0.0964,6.383900166,-2.682899952,-1.097599983,0.914600015
6.631000042,710,-0.038899999,-0.043699998,6.285699844,-2.134200096,-1.036599994,0.853699982
6.635000229,711,-0.038899999,-0.043699998,6.285699844,-2.134200096,-1.036599994,0.853699982
6.775000095,724,0.127499998,-0.195199996,6.354599953,-2.5,-0.487800002,0.365799993
6.782999992,725,0.113200001,-0.132300004,6.362999916,-2.317100048,-0.365799993,0.426800013
6.787000179,726,0.113200001,-0.132300004,6.362999916,-2.317100048,-0.365799993,0.426800013
6.798999786,727,0.098800004,-0.092200004,6.357600212,-2.195100069,-0.304899991,0.548799992
6.802999973,728,0.098800004,-0.092200004,6.357600212,-2.195100069,-0.304899991,0.548799992
6.813000202,729,0.07,-0.075999998,6.359399796,-2.073199987,-0.243900001,0.609799981
6.816999912,730,0.07,-0.075999998,6.359399796,-2.073199987,-0.243900001,0.609799981
6.828000069,731,0.045499999,-0.059300002,6.370200157,-2.012200117,-0.122000001,0.670700014
6.831999779,732,0.045499999,-0.059300002,6.370200157,-2.012200117,-0.122000001,0.670700014
6.84499979,733,0.0425,-0.0198,6.354599953,-1.951200008,-0.122000001,0.731700003
6.848999977,734,0.0425,-0.0198,6.354599953,-1.951200008,-0.122000001,0.731700003
6.861000061,735,0.088,0.0048,6.34679985,-1.890200019,-0.061000001,0.792699993
6.864999771,736,0.088,0.0048,6.34679985,-1.890200019,-0.061000001,0.792699993
6.885000229,737,0.141299993,0.0174,6.342000008,-1.829300046,0.061000001,0.792699993
6.894000053,738,0.177200004,0.0251,6.328800201,-1.829300046,0.182899997,0.792699993
6.90199995,739,0.220300004,0.025800001,6.282700062,-1.890200019,0.304899991,0.792699993
6.906000137,740,0.220300004,0.025800001,6.282700062,-1.890200019,0.304899991,0.792699993
6.925000191,741,0.286799997,-0.0036,6.242599964,-1.951200008,0.426800013,0.731700003
6.934000015,742,0.340700001,-0.012,6.188700199,-2.012200117,0.548799992,0.609799981
6.938000202,743,0.340700001,-0.012,6.188700199,-2.012200117,0.548799992,0.609799981
6.954999924,744,0.375999987,-0.029899999,6.143799782,-2.073199987,0.670700014,0.548799992
6.962999821,745,0.361600012,-0.024599999,6.092299938,-2.195100069,0.792699993,0.487800002
6.967000008,746,0.361600012,-0.024599999,6.092299938,-2.195100069,0.792699993,0.487800002
6.985000134,747,0.33950001,-0.0066,6.010900021,-2.317100048,0.975600004,0.426800013
6.993999958,748,0.323900014,0.021600001,5.942599773,-2.5,1.219499946,0.365799993
6.998000145,749,0.323900014,0.021600001,5.942599773,-2.5,1.219499946,0.365799993
7.014999866,750,0.304199994,0.015,5.912700176,-2.621999979,1.341500044,0.304899991
7.022999763,751,0.280800015,-0.0491,5.913899899,-2.561000109,1.280500054,0.182899997
7.026000023,752,0.280800015,-0.0491,5.913899899,-2.561000109,1.280500054,0.182899997
7.037000179,753,0.255699992,-0.146699995,5.934299946,-2.317100048,1.219499946,0.061000001
7.040999889,754,0.255699992,-0.146699995,5.934299946,-2.317100048,1.219499946,0.061000001
7.054999828,755,0.2377,-0.2377,5.951000214,-2.073199987,1.219499946,-0.061000001
7.058000088,756,0.2377,-0.2377,5.951000214,-2.073199987,1.219499946,-0.061000001
7.070000172,757,0.228699997,-0.309599996,5.955200195,-1.768300056,1.341500044,-0.122000001
7.073999882,758,0.228699997,-0.309599996,5.955200195,-1.768300056,1.341500044,-0.122000001
7.09499979,759,0.190400004,-0.359200001,5.937799931,-1.524399996,1.463400006,-0.122000001
7.104000092,760,0.061700001,-0.413100004,5.936100006,-1.219499946,1.585399985,-0.122000001
7.112999916,761,-0.142499998,-0.450300008,5.964799881,-1.097599983,1.707299948,-0.122000001
7.114999771,762,-0.142499998,-0.450300008,5.964799881,-1.097599983,1.707299948,-0.122000001
7.125999928,763,-0.404799998,-0.440100014,5.994100094,-1.036599994,1.768300056,-0.122000001
7.130000114,764,-0.404799998,-0.440100014,5.994100094,-1.036599994,1.768300056,-0.122000001
7.144999981,765,-0.670599997,-0.377799988,6.046199799,-1.219499946,1.646299958,-0.061000001
7.149000168,766,-0.670599997,-0.377799988,6.046199799,-1.219499946,1.646299958,-0.061000001
7.164999962,767,-0.716099977,-0.324499995,6.125899792,-1.341500044,1.219499946,-0.061000001
7.172999859,768,-0.535899997,-0.370599985,6.14260006,-1.524399996,0.853699982,-0.061000001
7.177000046,769,-0.535899997,-0.370599985,6.14260006,-1.524399996,0.853699982,-0.061000001
7.195000172,770,-0.349700004,-0.506600022,6.164800167,-1.524399996,0.670700014,-0.182899997
7.203000069,771,-0.291599989,-0.591000021,6.286300182,-1.463400006,0.365799993,-0.304899991
7.205999851,772,-0.291599989,-0.591000021,6.286300182,-1.463400006,0.365799993,-0.304899991
7.224999905,773,-0.320899993,-0.56220001,6.401299953,-1.524399996,0.061000001,-0.426800013
7.364999771,787,0.033500001,-0.0072,5.380400181,-0.731700003,0.670700014,0
7.388999939,790,-0.024599999,-0.1096,5.46600008,-0.670700014,0.609799981,-0.122000001
7.406000137,791,-0.054499999,-0.192200005,5.568399906,-0.731700003,0.487800002,-0.182899997
7.414000034,792,-0.055100001,-0.231700003,5.624700069,-0.670700014,0.487800002,-0.243900001
7.416999817,793,-0.055100001,-0.231700003,5.624700069,-0.670700014,0.487800002,-0.243900001
7.427999973,794,-0.058699999,-0.240099996,5.664199829,-0.609799981,0.426800013,-0.243900001
7.43200016,795,-0.058699999,-0.240099996,5.664199829,-0.609799981,0.426800013,-0.243900001
7.445000172,796,-0.059300002,-0.223900005,5.672599792,-0.548799992,0.487800002,-0.243900001
7.448999882,797,-0.059300002,-0.223900005,5.672599792,-0.548799992,0.487800002,-0.243900001
7.460000038,798,-0.049699999,-0.201199993,5.655799866,-0.487800002,0.487800002,-0.182899997
7.464000225,799,-0.049699999,-0.201199993,5.655799866,-0.487800002,0.487800002,-0.182899997
7.475999832,800,-0.0317,-0.206599995,5.602600098,-0.487800002,0.548799992,-0.122000001
7.480000019,801,-0.0317,-0.206599995,5.602600098,-0.487800002,0.548799992,-0.122000001
7.494999886,802,-0.025800001,-0.228100002,5.522299767,-0.304899991,0.609799981,-0.061000001
7.504000187,803,-0.040100001,-0.258100003,5.464799881,-0.365799993,0.609799981,-0.061000001
7.507999897,804,-0.040100001,-0.258100003,5.464799881,-0.365799993,0.609799981,-0.061000001
7.525000095,805,-0.061099999,-0.263999999,5.423500061,-0.548799992,0.609799981,-0.122000001
7.550000191,808,-0.110200003,-0.231099993,5.388199806,-0.487800002,0.426800013,-0.122000001
7.553999901,809,-0.110200003,-0.231099993,5.388199806,-0.487800002,0.426800013,-0.122000001
7.56400013,810,-0.105400003,-0.196400002,5.393599987,-0.365799993,0.426800013,-0.061000001
7.56799984,811,-0.105400003,-0.196400002,5.393599987,-0.365799993,0.426800013,-0.061000001
7.585999966,812,-0.085600004,-0.128099993,5.407999992,-0.304899991,0.426800013,-0.061000001
7.59499979,813,-0.075999998,-0.047899999,5.422299862,-0.182899997,0.365799993,0
7.598999977,814,-0.075999998,-0.047899999,5.422299862,-0.182899997,0.365799993,0
7.614999771,815,-0.079599999,0.029899999,5.420499802,-0.182899997,0.304899991,0.061000001
7.624000072,816,-0.080799997,0.074199997,5.391200066,-0.304899991,0.304899991,0.122000001
7.627999783,817,-0.080799997,0.074199997,5.391200066,-0.304899991,0.304899991,0.122000001
7.644999981,818,-0.079000004,0.079000004,5.35890007,-0.487800002,0.304899991,0.122000001
7.686999798,823,-0.020400001,-0.093999997,5.255899906,-0.670700014,0.365799993,0.061000001
7.701000214,824,-0.0018,-0.1611,5.221700191,-0.548799992,0.365799993,0
7.704999924,825,-0.0018,-0.1611,5.221700191,-0.548799992,0.365799993,0
7.724999905,826,0,-0.203600004,5.205599785,-0.548799992,0.365799993,-0.061000001
7.734000206,827,-0.006,-0.215000004,5.204999924,-0.609799981,0.365799993,-0.122000001
7.742000103,828,-0.0078,-0.191,5.209199905,-0.670700014,0.304899991,-0.122000001
7.745999813,829,-0.0078,-0.191,5.209199905,-0.670700014,0.304899991,-0.122000001
7.764999866,830,-0.0186,-0.163499996,5.195400238,-0.731700003,0.304899991,-0.122000001
7.772999763,831,-0.0251,-0.129299998,5.154699802,-0.731700003,0.304899991,-0.122000001
7.77699995,832,-0.0251,-0.129299998,5.154699802,-0.731700003,0.304899991,-0.122000001
7.795000076,833,-0.0359,-0.106600001,5.124100208,-0.670700014,0.304899991,-0.122000001
7.802999973,834,-0.0341,-0.093999997,5.103199959,-0.670700014,0.304899991,-0.122000001
7.806000233,835,-0.0341,-0.093999997,5.103199959,-0.670700014,0.304899991,-0.122000001
7.824999809,836,-0.043099999,-0.090999998,5.099599838,-0.670700014,0.304899991,-0.061000001
7.834000111,837,-0.046700001,-0.092200004,5.096600056,-0.670700014,0.304899991,-0.061000001
7.837999821,838,-0.046700001,-0.092200004,5.096600056,-0.670700014,0.304899991,-0.061000001
7.855000019,839,-0.049699999,-0.088,5.093599796,-0.792699993,0.243900001,-0.061000001
7.862999916,840,-0.043099999,-0.077799998,5.073800087,-0.914600015,0.243900001,-0.061000001
7.867000103,841,-0.043099999,-0.077799998,5.073800087,-0.914600015,0.243900001,-0.061000001
7.885000229,842,-0.038899999,-0.068899997,5.039700031,-0.975600004,0.243900001,-0.061000001
7.894000053,843,-0.037099998,-0.059900001,4.999000072,-0.975600004,0.304899991,-0.061000001
7.897999763,844,-0.037099998,-0.059900001,4.999000072,-0.975600004,0.304899991,-0.061000001
7.915999889,845,-0.0264,-0.072400004,4.988200188,-1.036599994,0.365799993,-0.122000001
7.923999786,846,-0.0108,-0.113799997,5.007400036,-1.219499946,0.365799993,-0.122000001
7.927000046,847,-0.0108,-0.113799997,5.007400036,-1.219499946,0.365799993,-0.122000001
7.945000172,848,-0.0018,-0.135900006,5.009200096,-1.280500054,0.365799993,-0.182899997
7.953999996,849,-0.006,-0.118000001,4.980400085,-1.341500044,0.365799993,-0.182899997
7.958000183,850,-0.006,-0.118000001,4.980400085,-1.341500044,0.365799993,-0.182899997
8.258000374,881,0.029300001,-0.431699991,4.887000084,-0.365799993,0.670700014,-0.365799993
8.276000023,882,0.019200001,-0.444900006,4.892399788,-0.243900001,0.670700014,-0.365799993
8.284999847,883,0.0012,-0.426299989,4.910999775,-0.122000001,0.609799981,-0.365799993
8.288999557,884,0.0012,-0.426299989,4.910999775,-0.122000001,0.609799981,-0.365799993
8.305999756,885,-0.0228,-0.394600004,4.954699993,0,0.609799981,-0.365799993
8.31400013,886,-0.0539,-0.343699992,5.002600193,0.243900001,0.487800002,-0.304899991
8.31799984,887,-0.0539,-0.343699992,5.002600193,0.243900001,0.487800002,-0.304899991
8.335000038,888,-0.079599999,-0.284399986,5.045100212,0.426800013,0.487800002,-0.243900001
8.343999863,889,-0.105400003,-0.213200003,5.058300018,0.609799981,0.365799993,-0.182899997
8.347999573,890,-0.105400003,-0.213200003,5.058300018,0.609799981,0.365799993,-0.182899997
8.364999771,891,-0.117399998,-0.120999999,5.055900097,0.792699993,0.304899991,-0.122000001
8.373000145,892,-0.128099993,-0.0132,5.006199837,0.914600015,0.122000001,-0.122000001
8.376999855,893,-0.128099993,-0.0132,5.006199837,0.914600015,0.122000001,-0.122000001
8.387000084,894,-0.118600003,0.089199997,4.927100182,0.975600004,0,-0.061000001
8.390999794,895,-0.118600003,0.089199997,4.927100182,0.975600004,0,-0.061000001
8.395000458,896,-0.118600003,0.089199997,4.927100182,0.975600004,0,-0.061000001
8.404999733,897,-0.088600002,0.165900007,4.867899895,0.792699993,0.061000001,0.061000001
8.407999992,898,-0.088600002,0.165900007,4.867899895,0.792699993,0.061000001,0.061000001
8.420000076,899,-0.094599999,0.222100005,4.828999996,0.609799981,0,0.122000001
8.423999786,900,-0.094599999,0.222100005,4.828999996,0.609799981,0,0.122000001
8.444999695,901,-0.088,0.2509,4.80919981,0.670700014,-0.061000001,0.182899997
8.454000473,902,-0.058699999,0.284399986,4.781700134,0.670700014,0.122000001,0.182899997
8.458000183,903,-0.058699999,0.284399986,4.781700134,0.670700014,0.122000001,0.182899997
8.475000381,904,-0.028100001,0.255699992,4.819399834,0.548799992,0.182899997,0.243900001
8.484000206,905,0.012,0.162900001,4.873300076,0.731700003,0.304899991,0.304899991
8.487999916,906,0.012,0.162900001,4.873300076,0.731700003,0.304899991,0.304899991
8.498999596,907,-0.0264,0.086199999,4.906799793,0.914600015,0.304899991,0.304899991
8.503000259,908,-0.0264,0.086199999,4.906799793,0.914600015,0.304899991,0.304899991
8.515000343,909,-0.073600002,0.063500002,4.948699951,1.036599994,0.182899997,0.243900001
8.524000168,910,-0.0766,0.068300001,4.992400169,0.975600004,0.061000001,0.182899997
8.527999878,911,-0.0766,0.068300001,4.992400169,0.975600004,0.061000001,0.182899997
8.545000076,912,-0.0198,0.091600001,4.992400169,0.975600004,0.182899997,0.243900001
8.553999901,913,0.021,0.055100001,4.982800007,0.975600004,0.182899997,0.304899991
8.557999611,914,0.021,0.055100001,4.982800007,0.975600004,0.182899997,0.304899991
8.574999809,915,0.0383,0.020400001,4.94329977,0.914600015,0.122000001,0.243900001
8.583000183,916,0.050900001,-0.0407,4.961299896,0.914600015,0.061000001,0.182899997
8.586999893,917,0.050900001,-0.0407,4.961299896,0.914600015,0.061000001,0.182899997
8.600000381,918,0.050900001,-0.0407,4.961299896,0.914600015,0.061000001,0.182899997
8.609000206,919,0.066500001,-0.050900001,4.974999905,1.097599983,0.061000001,0.061000001
8.618000031,920,0.0557,0.041900001,4.970300198,1.097599983,-0.061000001,0
8.621999741,921,0.0557,0.041900001,4.970300198,1.097599983,-0.061000001,0
8.635000229,922,0.044300001,0.155100003,4.918799877,1.097599983,0,0
8.642999649,923,0.035300002,0.255699992,4.853499889,0.914600015,-0.061000001,-0.061000001
8.645999908,924,0.035300002,0.255699992,4.853499889,0.914600015,-0.061000001,-0.061000001
8.659999847,925,0.035300002,0.255699992,4.853499889,0.914600015,-0.061000001,-0.061000001
8.668000221,926,0.0162,0.319099993,4.78579998,0.731700003,-0.061000001,-0.061000001
8.677000046,927,0.0042,0.344300002,4.718200207,0.609799981,0,-0.122000001
8.680999756,928,0.0042,0.344300002,4.718200207,0.609799981,0,-0.122000001
8.694999695,929,0.036499999,0.323900014,4.670300007,0.487800002,0.061000001,-0.061000001
8.704000473,930,0.077799998,0.255699992,4.619400024,0.365799993,0.122000001,-0.122000001
8.708000183,931,0.077799998,0.255699992,4.619400024,0.365799993,0.122000001,-0.122000001
8.725000381,932,0.077200003,0.194000006,4.573299885,0.243900001,0.182899997,-0.122000001
8.734000206,933,0.054499999,0.140699998,4.563099861,0.182899997,0.182899997,-0.182899997
8.737999916,934,0.054499999,0.140699998,4.563099861,0.182899997,0.182899997,-0.182899997
8.755000114,935,0.0305,0.0898,4.579899788,0.243900001,0.182899997,-0.243900001
8.762999535,936,0.047899999,0.0305,4.60379982,0.304899991,0.182899997,-0.243900001
8.767000198,937,0.047899999,0.0305,4.60379982,0.304899991,0.182899997,-0.243900001
8.779999733,938,0.047899999,0.0305,4.60379982,0.304899991,0.182899997,-0.243900001
8.788999557,939,0.125699997,-0.037700001,4.625999928,0.426800013,0.243900001,-0.304899991
8.798000336,940,0.2042,-0.120999999,4.667900085,0.548799992,0.487800002,-0.304899991
8.800000191,941,0.2042,-0.120999999,4.667900085,0.548799992,0.487800002,-0.304899991
8.81099987,942,0.214399993,-0.240700006,4.720600128,0.548799992,0.487800002,-0.365799993
8.81499958,943,0.214399993,-0.240700006,4.720600128,0.548799992,0.487800002,-0.365799993
8.835000038,944,0.152099997,-0.356299996,4.779300213,0.670700014,0.548799992,-0.426800013
8.843000412,945,0.090400003,-0.431100011,4.824800014,0.853699982,0.487800002,-0.548799992
8.847000122,946,0.090400003,-0.431100011,4.824800014,0.853699982,0.487800002,-0.548799992
8.859000206,947,0.049699999,-0.429899991,4.827799797,1.158499956,0.426800013,-0.670700014
8.862999916,948,0.049699999,-0.429899991,4.827799797,1.158499956,0.426800013,-0.670700014
8.885000229,949,0.0407,-0.364600003,4.800799847,1.341500044,0.365799993,-0.731700003
8.888999939,950,0.0407,-0.364600003,4.800799847,1.341500044,0.365799993,-0.731700003
8.904999733,951,0.0473,-0.274800003,4.757699966,1.524399996,0.365799993,-0.792699993
8.913000107,952,0.065899998,-0.176599994,4.729599953,1.585399985,0.487800002,-0.731700003
8.916999817,953,0.065899998,-0.176599994,4.729599953,1.585399985,0.487800002,-0.731700003
8.930000305,954,0.065899998,-0.176599994,4.729599953,1.585399985,0.487800002,-0.731700003
8.937999725,955,0.070600003,-0.098200001,4.729599953,1.585399985,0.487800002,-0.731700003
8.94699955,956,0.052099999,-0.0264,4.74450016,1.646299958,0.487800002,-0.731700003
8.951000214,957,0.052099999,-0.0264,4.74450016,1.646299958,0.487800002,-0.731700003
8.965000153,958,-0.0042,0.021600001,4.748700142,1.524399996,0.426800013,-0.731700003
8.972999573,959,-0.078400001,0.098200001,4.709799767,1.524399996,0.304899991,-0.670700014
8.977000237,960,-0.078400001,0.098200001,4.709799767,1.524399996,0.304899991,-0.670700014
8.989999771,961,-0.078400001,0.098200001,4.709799767,1.524399996,0.304899991,-0.670700014
8.998999596,962,-0.157499999,0.201800004,4.621799946,1.402400017,0.122000001,-0.609799981
9.006999969,963,-0.244299993,0.312599987,4.527200222,1.219499946,0,-0.487800002
9.010000229,964,-0.244299993,0.312599987,4.527200222,1.219499946,0,-0.487800002
9.020000458,965,-0.342500001,0.392800003,4.490699768,1.097599983,-0.122000001,-0.304899991
9.024000168,966,-0.342500001,0.392800003,4.490699768,1.097599983,-0.122000001,-0.304899991
9.034999847,967,-0.413700014,0.444900006,4.484099865,0.975600004,-0.243900001,-0.061000001
9.038999557,968,-0.413700014,0.444900006,4.484099865,0.975600004,-0.243900001,-0.061000001
9.055000305,969,-0.450899988,0.447299987,4.506800175,0.853699982,-0.304899991,0.122000001
9.065999985,970,-0.458000004,0.391000003,4.567299843,0.792699993,-0.365799993,0.182899997
9.069999695,971,-0.458000004,0.391000003,4.567299843,0.792699993,-0.365799993,0.182899997
9.085000038,972,-0.420300007,0.294,4.64989996,0.548799992,-0.426800013,0.182899997
9.088999748,973,-0.420300007,0.294,4.64989996,0.548799992,-0.426800013,0.182899997
9.104999542,974,-0.362800002,0.171200007,4.708600044,0.548799992,-0.609799981,0.182899997
9.112999916,975,-0.281399995,0.046100002,4.752299786,0.548799992,-0.609799981,0.182899997
9.116999626,976,-0.281399995,0.046100002,4.752299786,0.548799992,-0.609799981,0.182899997
9.135000229,977,-0.200599998,-0.075400002,4.791800022,0.670700014,-0.670700014,0.061000001
9.144000053,978,-0.118000001,-0.150299996,4.845099926,0.670700014,-0.731700003,0
9.147999763,979,-0.118000001,-0.150299996,4.845099926,0.670700014,-0.731700003,0
9.164999962,980,-0.0359,-0.2509,4.852900028,0.670700014,-0.853699982,-0.061000001
9.173000336,981,0.0138,-0.280200005,4.806799889,0.731700003,-0.853699982,-0.122000001
9.177000046,982,0.0138,-0.280200005,4.806799889,0.731700003,-0.853699982,-0.122000001
9.194999695,983,0.034699999,-0.281399995,4.827199936,0.609799981,-0.853699982,-0.122000001
9.204000473,984,0.043099999,-0.278400004,4.856500149,0.487800002,-0.975600004,-0.122000001
9.208000183,985,0.043099999,-0.278400004,4.856500149,0.487800002,-0.975600004,-0.122000001
9.225999832,986,0.054499999,-0.270000011,4.862500191,0.365799993,-0.975600004,-0.122000001
9.234999657,987,0.0383,-0.256300002,4.858300209,0.182899997,-1.036599994,-0.061000001
9.23900032,988,0.0383,-0.256300002,4.858300209,0.182899997,-1.036599994,-0.061000001
9.255000114,989,0.0114,-0.252700001,4.861899853,0.122000001,-1.097599983,0
9.262999535,990,-0.037700001,-0.262199998,4.909800053,0.061000001,-1.158499956,0.122000001
9.267000198,991,-0.037700001,-0.262199998,4.909800053,0.061000001,-1.158499956,0.122000001
9.284999847,992,-0.090999998,-0.275999993,4.999000072,0.061000001,-1.280500054,0.182899997
9.293999672,993,-0.143099993,-0.298200011,5.125899792,0.061000001,-1.280500054,0.304899991
9.298000336,994,-0.143099993,-0.298200011,5.125899792,0.061000001,-1.280500054,0.304899991
9.31499958,995,-0.205400005,-0.344300002,5.291200161,0.122000001,-1.463400006,0.304899991
9.322999954,996,-0.253300011,-0.413700014,5.455299854,0.182899997,-1.707299948,0.304899991
9.326999664,997,-0.253300011,-0.413700014,5.455299854,0.182899997,-1.707299948,0.304899991
9.345000267,998,-0.306600004,-0.488599986,5.652800083,0.182899997,-2.256099939,0.304899991
9.352999687,999,-0.320300013,-0.564599991,5.815700054,-0.182899997,-2.804899931,0.304899991
9.357000351,1000,-0.320300013,-0.564599991,5.815700054,-0.182899997,-2.804899931,0.304899991
9.375,1001,-0.325100005,-0.663399994,5.861800194,-0.487800002,-3.292700052,0.182899997
9.383999825,1002,-0.303600013,-0.732299984,5.796000004,-0.426800013,-3.719500065,0.061000001
9.387999535,1003,-0.303600013,-0.732299984,5.796000004,-0.426800013,-3.719500065,0.061000001
9.404999733,1004,-0.281399995,-0.776000023,5.69299984,-0.304899991,-4.024400234,0
9.413000107,1005,-0.232899994,-0.76639998,5.578000069,-0.304899991,-4.024400234,-0.061000001
9.416999817,1006,-0.232899994,-0.76639998,5.578000069,-0.304899991,-4.024400234,-0.061000001
9.427000046,1007,-0.226300001,-0.771200001,5.46239996,0,-3.841500044,0
9.473999977,1012,-0.399399996,-0.689199984,5.264200211,0.609799981,-2.804899931,0.122000001
9.477000237,1013,-0.399399996,-0.689199984,5.264200211,0.609799981,-2.804899931,0.122000001
9.494999886,1014,-0.386200011,-0.661000013,5.273200035,0.853699982,-2.5,0.122000001
9.50399971,1015,-0.256300002,-0.613699973,5.33190012,0.792699993,-2.134200096,0.182899997
9.506999969,1016,-0.256300002,-0.613699973,5.33190012,0.792699993,-2.134200096,0.182899997
9.524999619,1017,-0.072400004,-0.601800025,5.425300121,0.548799992,-1.768300056,0.243900001
9.534000397,1018,0.124499999,-0.598800004,5.488200188,0.304899991,-1.585399985,0.182899997
9.538000107,1019,0.124499999,-0.598800004,5.488200188,0.304899991,-1.585399985,0.182899997
9.550000191,1020,0.298200011,-0.567600012,5.490600109,0.182899997,-1.158499956,0.243900001
9.55300045,1021,0.298200011,-0.567600012,5.490600109,0.182899997,-1.158499956,0.243900001
9.56499958,1022,0.402399987,-0.51910001,5.482200146,0.122000001,-0.609799981,0.243900001
9.569000244,1023,0.402399987,-0.51910001,5.482200146,0.122000001,-0.609799981,0.243900001
9.585000038,1024,0.451499999,-0.490399987,5.501999855,-0.061000001,-0.061000001,0.304899991
9.593999863,1025,0.463999987,-0.476599991,5.533100128,-0.304899991,0.304899991,0.365799993
9.597999573,1026,0.463999987,-0.476599991,5.533100128,-0.304899991,0.304899991,0.365799993
9.616000175,1027,0.442499995,-0.493400007,5.604400158,-0.487800002,0.548799992,0.365799993
9.625,1028,0.370000005,-0.538299978,5.710299969,-0.548799992,0.548799992,0.304899991
9.62899971,1029,0.370000005,-0.538299978,5.710299969,-0.548799992,0.548799992,0.304899991
9.684000015,1034,0.047899999,-0.215599999,6.170199871,-0.914600015,0.426800013,0.122000001
9.687999725,1035,0.047899999,-0.215599999,6.170199871,-0.914600015,0.426800013,0.122000001
9.699999809,1036,0.0054,-0.115000002,6.294700146,-0.975600004,0.304899991,0.182899997
9.704000473,1037,0.0054,-0.115000002,6.294700146,-0.975600004,0.304899991,0.182899997
9.725000381,1038,-0.015,-0.059300002,6.362999916,-1.036599994,0.182899997,0.243900001
9.734000206,1039,-0.040100001,-0.0078,6.404300213,-1.036599994,0.061000001,0.365799993
9.743000031,1040,-0.068899997,0.026900001,6.406700134,-0.975600004,-0.182899997,0.365799993
9.746999741,1041,-0.068899997,0.026900001,6.406700134,-0.975600004,-0.182899997,0.365799993
9.765000343,1042,-0.070600003,0.055100001,6.376699924,-0.975600004,-0.243900001,0.426800013
9.772999763,1043,-0.0174,0.056299999,6.307300091,-0.792699993,-0.365799993,0.426800013
9.777000427,1044,-0.0174,0.056299999,6.307300091,-0.792699993,-0.365799993,0.426800013
9.795000076,1045,0.050900001,0.0138,6.242599964,-0.731700003,-0.365799993,0.426800013
9.80300045,1046,0.114399999,-0.0557,6.209700108,-0.609799981,-0.365799993,0.426800013
9.80700016,1047,0.114399999,-0.0557,6.209700108,-0.609799981,-0.365799993,0.426800013
9.824999809,1048,0.162300006,-0.115000002,6.222300053,-0.487800002,-0.304899991,0.426800013
9.833000183,1049,0.187999994,-0.1162,6.237800121,-0.548799992,-0.243900001,0.426800013
9.836000443,1050,0.187999994,-0.1162,6.237800121,-0.548799992,-0.243900001,0.426800013
9.847999573,1051,0.200599998,-0.080799997,6.269000053,-0.670700014,-0.243900001,0.426800013
9.852000237,1052,0.200599998,-0.080799997,6.269000053,-0.670700014,-0.243900001,0.426800013
9.864999771,1053,0.186800003,-0.038899999,6.318699837,-0.670700014,-0.304899991,0.487800002
9.869000435,1054,0.186800003,-0.038899999,6.318699837,-0.670700014,-0.304899991,0.487800002
9.885000229,1055,0.1611,-0.0186,6.361800194,-0.609799981,-0.304899991,0.548799992
9.894000053,1056,0.131699994,0.0162,6.390500069,-0.487800002,-0.243900001,0.609799981
9.897999763,1057,0.131699994,0.0162,6.390500069,-0.487800002,-0.243900001,0.609799981
9.916000366,1058,0.093400002,0.070600003,6.448599815,-0.548799992,-0.182899997,0.609799981
9.923999786,1059,0.083800003,0.141900003,6.477900028,-0.609799981,-0.304899991,0.609799981
9.92800045,1060,0.083800003,0.141900003,6.477900028,-0.609799981,-0.304899991,0.609799981
9.944999695,1061,0.112599999,0.205400005,6.470099926,-0.609799981,-0.304899991,0.670700014
9.954000473,1062,0.162900001,0.270000011,6.43900013,-0.548799992,-0.182899997,0.731700003
9.958000183,1063,0.162900001,0.270000011,6.43900013,-0.548799992,-0.182899997,0.731700003
9.975999832,1064,0.223900005,0.314399987,6.39470005,-0.548799992,-0.061000001,0.731700003
9.984999657,1065,0.269400001,0.329299986,6.379700184,-0.487800002,0,0.670700014
9.98900032,1066,0.269400001,0.329299986,6.379700184,-0.487800002,0,0.670700014
10.00500011,1067,0.311399996,0.327499986,6.387499809,-0.487800002,0.122000001,0.548799992
10.01399994,1068,0.357499987,0.312599987,6.380899906,-0.304899991,0.365799993,0.426800013
10.01799965,1069,0.357499987,0.312599987,6.380899906,-0.304899991,0.365799993,0.426800013
10.03499985,1070,0.385600001,0.366400003,6.301300049,-0.670700014,0.365799993,0.426800013
10.04399967,1071,0.41080001,0.355100006,6.271399975,-0.853699982,0.487800002,0.304899991
10.04800034,1072,0.41080001,0.355100006,6.271399975,-0.853699982,0.487800002,0.304899991
10.06599998,1073,0.404199988,0.300000012,6.250999928,-0.975600004,0.609799981,0.122000001
10.07699966,1074,0.363400012,0.240099996,6.250999928,-1.158499956,0.670700014,0
10.08600044,1075,0.325100005,0.175999999,6.291699886,-1.219499946,0.731700003,-0.061000001
10.09000015,1076,0.325100005,0.175999999,6.291699886,-1.219499946,0.731700003,-0.061000001
10.10599995,1077,0.298799992,0.118600003,6.330599785,-1.158499956,0.792699993,-0.182899997
10.10999966,1078,0.298799992,0.118600003,6.330599785,-1.158499956,0.792699993,-0.182899997
10.1260004,1079,0.291000009,0.077200003,6.35340023,-1.036599994,0.853699982,-0.243900001
10.13399982,1080,0.2958,0.07,6.346199989,-0.914600015,0.975600004,-0.304899991
10.13799953,1081,0.2958,0.07,6.346199989,-0.914600015,0.975600004,-0.304899991
10.15499973,1082,0.296400011,0.092200004,6.317500114,-0.914600015,1.097599983,-0.365799993
10.16300011,1083,0.237100005,0.115599997,6.279699802,-0.975600004,1.280500054,-0.487800002
10.16699982,1084,0.237100005,0.115599997,6.279699802,-0.975600004,1.280500054,-0.487800002
10.18500042,1085,0.056899998,0.1096,6.243800163,-1.097599983,1.402400017,-0.548799992
10.19400024,1086,-0.277200013,0.0539,6.21570015,-1.158499956,1.524399996,-0.670700014
10.19799995,1087,-0.277200013,0.0539,6.21570015,-1.158499956,1.524399996,-0.670700014
10.21500015,1088,-0.702300012,-0.0383,6.23239994,-1.158499956,1.463400006,-0.792699993
10.22399998,1089,-0.846000016,-0.094599999,6.32460022,-1.219499946,1.219499946,-0.670700014
10.22799969,1090,-0.846000016,-0.094599999,6.32460022,-1.219499946,1.219499946,-0.670700014
10.23999977,1091,-0.7245,-0.2042,6.335999966,-1.158499956,1.097599983,-0.609799981
10.24400043,1092,-0.7245,-0.2042,6.335999966,-1.158499956,1.097599983,-0.609799981
10.25500011,1093,-0.682600021,-0.391600013,6.328199863,-0.975600004,0.914600015,-0.609799981
10.25899982,1094,-0.682600021,-0.391600013,6.328199863,-0.975600004,0.914600015,-0.609799981
10.27499962,1095,-0.688600004,-0.493999988,6.418000221,-1.036599994,0.487800002,-0.670700014
10.28299999,1096,-0.638300002,-0.456200004,6.495299816,-0.853699982,-0.061000001,-0.670700014
10.2869997,1097,-0.638300002,-0.456200004,6.495299816,-0.853699982,-0.061000001,-0.670700014
10.30500031,1098,-0.49939999,-0.349700004,6.449200153,-0.609799981,-0.304899991,-0.548799992
10.31400013,1099,-0.289799988,-0.220899999,6.291100025,-0.365799993,-0.182899997,-0.365799993
10.31799984,1100,-0.289799988,-0.220899999,6.291100025,-0.365799993,-0.182899997,-0.365799993
10.44999981,1113,-0.114399999,-0.195800006,5.517499924,-0.426800013,0.914600015,-0.243900001
10.45400047,1114,-0.114399999,-0.195800006,5.517499924,-0.426800013,0.914600015,-0.243900001
10.4659996,1115,-0.123899996,-0.163499996,5.618100166,-0.365799993,0.792699993,-0.243900001
10.47000027,1116,-0.123899996,-0.163499996,5.618100166,-0.365799993,0.792699993,-0.243900001
10.48499966,1117,-0.077200003,-0.116800003,5.621099949,-0.061000001,0.670700014,-0.182899997
10.49300003,1118,0.0042,-0.097000003,5.515699863,0.122000001,0.609799981,-0.061000001
10.49699974,1119,0.0042,-0.097000003,5.515699863,0.122000001,0.609799981,-0.061000001
10.50699997,1120,0.082599998,-0.120399997,5.358300209,0.304899991,0.731700003,0
10.51099968,1121,0.082599998,-0.120399997,5.358300209,0.304899991,0.731700003,0
10.52200031,1122,0.103600003,-0.173600003,5.248099804,0.243900001,0.975600004,0.122000001
10.52600002,1123,0.103600003,-0.173600003,5.248099804,0.243900001,0.975600004,0.122000001
10.54500008,1124,0.085000001,-0.257499993,5.219900131,0.122000001,1.097599983,0.061000001
10.55300045,1125,0.039500002,-0.343699992,5.269599915,0,1.097599983,0
10.55700016,1126,0.039500002,-0.343699992,5.269599915,0,1.097599983,0
10.56999969,1127,0.0096,-0.376599997,5.337299824,0,0.914600015,-0.061000001
10.57400036,1128,0.0096,-0.376599997,5.337299824,0,0.914600015,-0.061000001
10.59500027,1129,0.0084,-0.348500013,5.346300125,0.182899997,0.731700003,-0.122000001
10.60400009,1130,-0.0066,-0.282000005,5.325300217,0.304899991,0.670700014,-0.122000001
10.61299992,1131,-0.0228,-0.190400004,5.299600124,0.426800013,0.609799981,-0.122000001
10.61699963,1132,-0.0228,-0.190400004,5.299600124,0.426800013,0.609799981,-0.122000001
10.63599968,1133,-0.032900002,-0.104800001,5.263100147,0.243900001,0.548799992,-0.061000001
10.64400005,1134,-0.0317,-0.0287,5.181600094,0,0.426800013,-0.061000001
10.64799976,1135,-0.0317,-0.0287,5.181600094,0,0.426800013,-0.061000001
10.66499996,1136,-0.0144,0.061700001,5.042699814,-0.487800002,0.426800013,0
10.67300034,1137,-0.0024,0.125100002,4.961299896,-0.914600015,0.609799981,0
10.67700005,1138,-0.0024,0.125100002,4.961299896,-0.914600015,0.609799981,0
10.69499969,1139,-0.0108,0.167600006,4.960700035,-1.036599994,0.731700003,0
10.70300007,1140,-0.0006,0.258700013,4.957099915,-1.036599994,0.670700014,0
10.70699978,1141,-0.0006,0.258700013,4.957099915,-1.036599994,0.670700014,0
10.72500038,1142,0.0078,0.342500001,4.932499886,-1.036599994,0.609799981,0.061000001
10.7329998,1143,-0.024,0.353899986,4.926000118,-0.975600004,0.487800002,0.061000001
10.73700047,1144,-0.024,0.353899986,4.926000118,-0.975600004,0.487800002,0.061000001
10.75500011,1145,-0.046100002,0.335900009,4.921800137,-0.670700014,0.609799981,0.122000001
10.76299953,1146,-0.054499999,0.282000005,4.906199932,-0.670700014,0.548799992,0.182899997
10.76599979,1147,-0.054499999,0.282000005,4.906199932,-0.670700014,0.548799992,0.182899997
10.77900028,1148,-0.043699998,0.157499999,4.90320015,-0.731700003,0.670700014,0.182899997
10.78299999,1149,-0.043699998,0.157499999,4.90320015,-0.731700003,0.670700014,0.182899997
10.79599953,1150,-0.037099998,-0.0042,4.950500011,-0.670700014,0.609799981,0.061000001
10.79899979,1151,-0.037099998,-0.0042,4.950500011,-0.670700014,0.609799981,0.061000001
10.81099987,1152,-0.021,-0.118000001,4.993000031,-0.487800002,0.487800002,0
10.81400013,1153,-0.021,-0.118000001,4.993000031,-0.487800002,0.487800002,0
10.82499981,1154,-0.0174,-0.165900007,4.992400169,-0.304899991,0.426800013,-0.122000001
10.82900047,1155,-0.0174,-0.165900007,4.992400169,-0.304899991,0.426800013,-0.122000001
10.84599972,1156,-0.015,-0.158700004,4.970900059,-0.122000001,0.365799993,-0.182899997
10.85400009,1157,-0.0144,-0.129899994,4.939099789,0.122000001,0.426800013,-0.243900001
10.85700035,1158,-0.0144,-0.129899994,4.939099789,0.122000001,0.426800013,-0.243900001
10.86699963,1159,-0.0144,-0.077799998,4.909200191,0.061000001,0.426800013,-0.304899991
10.87100029,1160,-0.0144,-0.077799998,4.909200191,0.061000001,0.426800013,-0.304899991
10.88000011,1161,-0.0144,-0.077799998,4.909200191,0.061000001,0.426800013,-0.304899991
10.88899994,1162,-0.0108,-0.0317,4.883999825,0.122000001,0.548799992,-0.304899991
10.89799976,1163,-0.006,-0.003,4.895400047,0.122000001,0.548799992,-0.365799993
10.90200043,1164,-0.006,-0.003,4.895400047,0.122000001,0.548799992,-0.365799993
10.91600037,1165,-0.0132,0.0264,4.917600155,0.122000001,0.487800002,-0.365799993
10.92000008,1166,-0.0132,0.0264,4.917600155,0.122000001,0.487800002,-0.365799993
10.93099976,1167,-0.026900001,0.061700001,4.923600197,0.122000001,0.426800013,-0.426800013
10.93500042,1168,-0.026900001,0.061700001,4.923600197,0.122000001,0.426800013,-0.426800013
10.95499992,1169,-0.037700001,0.095799997,4.914599895,0.122000001,0.487800002,-0.426800013
10.9630003,1170,-0.040100001,0.111400001,4.918200016,0.182899997,0.548799992,-0.426800013
10.96700001,1171,-0.040100001,0.111400001,4.918200016,0.182899997,0.548799992,-0.426800013
10.97799969,1172,-0.025800001,0.113200001,4.926599979,0.304899991,0.548799992,-0.426800013
10.98200035,1173,-0.025800001,0.113200001,4.926599979,0.304899991,0.548799992,-0.426800013
10.99499989,1174,-0.0078,0.108400002,4.92539978,0.365799993,0.548799992,-0.426800013
11.00399971,1175,-0.0024,0.088,4.926000118,0.304899991,0.548799992,-0.426800013
11.00800037,1176,-0.0024,0.088,4.926000118,0.304899991,0.548799992,-0.426800013
11.02600002,1177,0.0072,0.040100001,4.942699909,0.304899991,0.609799981,-0.426800013
11.0340004,1178,0.024,-0.0228,4.945099831,0.365799993,0.609799981,-0.487800002
11.03800011,1179,0.024,-0.0228,4.945099831,0.365799993,0.609799981,-0.487800002
11.05000019,1180,0.040100001,-0.077799998,4.938499928,0.487800002,0.670700014,-0.487800002
11.0539999,1181,0.040100001,-0.077799998,4.938499928,0.487800002,0.670700014,-0.487800002
11.07499981,1182,0.032299999,-0.0964,4.921199799,0.670700014,0.670700014,-0.548799992
11.08600044,1183,0.0222,-0.082000002,4.90500021,0.792699993,0.609799981,-0.609799981
11.09500027,1184,0.0222,-0.017999999,4.872700214,0.731700003,0.548799992,-0.670700014
11.09899998,1185,0.0222,-0.017999999,4.872700214,0.731700003,0.548799992,-0.670700014
11.11600018,1186,0.0341,0.038899999,4.840899944,0.670700014,0.609799981,-0.670700014
11.125,1187,0.037700001,0.036499999,4.831999779,0.853699982,0.609799981,-0.731700003
11.12899971,1188,0.037700001,0.036499999,4.831999779,0.853699982,0.609799981,-0.731700003
11.14500046,1189,0.059300002,0.045499999,4.799600124,0.853699982,0.609799981,-0.731700003
11.15299988,1190,0.061700001,0.0425,4.788199902,0.792699993,0.670700014,-0.731700003
11.15699959,1191,0.061700001,0.0425,4.788199902,0.792699993,0.670700014,-0.731700003
11.17500019,1192,0.0605,0.037099998,4.803199768,0.670700014,0.731700003,-0.731700003
11.18400002,1193,0.0383,0.053300001,4.819399834,0.670700014,0.731700003,-0.792699993
11.18799973,1194,0.0383,0.053300001,4.819399834,0.670700014,0.731700003,-0.792699993
11.20600033,1195,-0.0042,0.068899997,4.863100052,0.548799992,0.609799981,-0.731700003
11.21500015,1196,-0.0251,0.035300002,4.961299896,0.914600015,0.731700003,-0.670700014
11.21899986,1197,-0.0251,0.035300002,4.961299896,0.914600015,0.731700003,-0.670700014
11.23600006,1198,-0.0305,0.035300002,5.024799824,1.158499956,0.609799981,-0.670700014
11.24400043,1199,-0.034699999,0.080200002,5.045100212,1.158499956,0.548799992,-0.609799981
11.24800014,1200,-0.034699999,0.080200002,5.045100212,1.158499956,0.548799992,-0.609799981
11.25899982,1201,-0.043699998,0.0964,5.058899879,1.280500054,0.487800002,-0.548799992
11.26299953,1202,-0.043699998,0.0964,5.058899879,1.280500054,0.487800002,-0.548799992
11.28499985,1203,-0.0473,0.119800001,5.072599888,1.402400017,0.426800013,-0.548799992
11.29300022,1204,-0.0449,0.162900001,5.090000153,1.524399996,0.304899991,-0.487800002
11.29699993,1205,-0.0449,0.162900001,5.090000153,1.524399996,0.304899991,-0.487800002
11.31499958,1206,-0.0305,0.210199997,5.098999977,1.585399985,0.243900001,-0.426800013
11.32299995,1207,-0.020400001,0.2491,5.083399773,1.646299958,0.122000001,-0.365799993
11.32699966,1208,-0.020400001,0.2491,5.083399773,1.646299958,0.122000001,-0.365799993
11.34500027,1209,-0.0156,0.287999988,5.049300194,1.768300056,0,-0.365799993
11.35299969,1210,-0.0305,0.344900012,4.985799789,1.829300046,-0.122000001,-0.304899991
11.35700035,1211,-0.0305,0.344900012,4.985799789,1.829300046,-0.122000001,-0.304899991
11.3760004,1212,-0.0964,0.447899997,4.882800102,1.707299948,-0.304899991,-0.243900001
11.38500023,1213,-0.202999994,0.563399971,4.719399929,1.341500044,-0.548799992,-0.122000001
11.39400005,1214,-0.344300002,0.663399994,4.547500134,0.853699982,-0.853699982,0.061000001
11.39799976,1215,-0.344300002,0.663399994,4.547500134,0.853699982,-0.853699982,0.061000001
11.4090004,1216,-0.497000009,0.728699982,4.422999859,0.426800013,-1.097599983,0.243900001
11.48799992,1225,-0.592199981,-0.703499973,4.943900108,-0.061000001,-0.731700003,0.365799993
11.4989996,1226,-0.336499989,-0.903500021,5.19119978,0.182899997,-1.036599994,0.182899997
11.50300026,1227,-0.336499989,-0.903500021,5.19119978,0.182899997,-1.036599994,0.182899997
11.51599979,1228,-0.139500007,-0.966400027,5.363599777,0.731700003,-1.341500044,0.122000001
11.56599998,1233,-0.055100001,-0.367599994,5.39839983,1.280500054,-2.195100069,0.426800013
11.57400036,1234,-0.110200003,-0.240099996,5.478000164,0.792699993,-2.5,0.548799992
11.57800007,1235,-0.110200003,-0.240099996,5.478000164,0.792699993,-2.5,0.548799992
11.58199978,1236,-0.110200003,-0.240099996,5.478000164,0.792699993,-2.5,0.548799992
11.59200001,1237,-0.167600006,-0.278400004,5.698400021,0.304899991,-3.048799992,0.670700014
11.59599972,1238,-0.167600006,-0.278400004,5.698400021,0.304899991,-3.048799992,0.670700014
11.61499977,1239,-0.236499995,-0.390399992,5.908500195,-0.365799993,-3.658499956,0.609799981
11.6239996,1240,-0.271800011,-0.515500009,5.978000164,-1.280500054,-3.780499935,0.487800002
11.62800026,1241,-0.271800011,-0.515500009,5.978000164,-1.280500054,-3.780499935,0.487800002
11.68400002,1246,-0.459199995,-1.048400044,5.527699947,0.304899991,-4.268300056,0.243900001
11.68799973,1247,-0.459199995,-1.048400044,5.527699947,0.304899991,-4.268300056,0.243900001
11.70100021,1248,-0.459800005,-1.139999986,5.417500019,1.463400006,-3.963399887,0.243900001
11.71000004,1249,-0.434700012,-1.059200048,5.326499939,2.195100069,-3.597599983,0.304899991
11.71399975,1250,-0.434700012,-1.059200048,5.326499939,2.195100069,-3.597599983,0.304899991
11.73600006,1251,-0.431699991,-0.930499971,5.277999878,2.378000021,-3.048799992,0.365799993
11.74400043,1252,-0.368800014,-0.76639998,5.269000053,2.256099939,-2.317100048,0.487800002
11.74800014,1253,-0.368800014,-0.76639998,5.269000053,2.256099939,-2.317100048,0.487800002
11.76500034,1254,-0.257499993,-0.640699983,5.31580019,1.646299958,-1.707299948,0.487800002
11.77299976,1255,-0.1096,-0.526300013,5.46780014,1.097599983,-1.524399996,0.487800002
11.77700043,1256,-0.1096,-0.526300013,5.46780014,1.097599983,-1.524399996,0.487800002
11.78999996,1257,0.080799997,-0.459800005,5.621099949,0.731700003,-1.341500044,0.426800013
11.79800034,1258,0.26699999,-0.400599986,5.681600094,0.365799993,-1.097599983,0.365799993
11.80200005,1259,0.26699999,-0.400599986,5.681600094,0.365799993,-1.097599983,0.365799993
11.81400013,1260,0.40959999,-0.341300011,5.665999889,0.182899997,-0.731700003,0.426800013
11.81799984,1261,0.40959999,-0.341300011,5.665999889,0.182899997,-0.731700003,0.426800013
11.83500004,1262,0.486799985,-0.307200015,5.627099991,0,-0.182899997,0.426800013
11.96500015,1276,0.141299993,-0.104800001,6.144999981,-0.670700014,0.853699982,0.122000001
11.96899986,1277,0.141299993,-0.104800001,6.144999981,-0.670700014,0.853699982,0.122000001
11.98099995,1278,0.056899998,0.0024,6.231800079,-0.914600015,0.670700014,0.061000001
11.98400021,1279,0.056899998,0.0024,6.231800079,-0.914600015,0.670700014,0.061000001
12.00500011,1280,0.0748,0.0018,6.318699837,-0.792699993,0.487800002,0.182899997
12.01299953,1281,0.107799999,-0.0174,6.356400013,-0.548799992,0.487800002,0.243900001
12.0170002,1282,0.107799999,-0.0174,6.356400013,-0.548799992,0.487800002,0.243900001
12.03499985,1283,0.137099996,0.0198,6.386300087,-0.548799992,0.304899991,0.243900001
12.04300022,1284,0.143099993,0.0473,6.460000038,-0.487800002,0.182899997,0.122000001
12.04599953,1285,0.143099993,0.0473,6.460000038,-0.487800002,0.182899997,0.122000001
12.06499958,1286,0.107799999,0.110799998,6.531199932,-0.243900001,0.182899997,0.122000001
12.45100021,1325,-0.572399974,-0.314399987,6.122300148,0.487800002,-0.426800013,0
12.45899963,1326,-0.053300001,-0.195800006,5.738500118,0.609799981,-0.243900001,0
12.4630003,1327,-0.053300001,-0.195800006,5.738500118,0.609799981,-0.243900001,0
12.47500038,1328,0.405400008,-0.0102,5.189400196,0.914600015,0.243900001,0.061000001
12.47900009,1329,0.405400008,-0.0102,5.189400196,0.914600015,0.243900001,0.061000001
12.49400043,1330,0.675999999,0.088,4.733799934,0.670700014,0.731700003,0.061000001
12.49800014,1331,0.675999999,0.088,4.733799934,0.670700014,0.731700003,0.061000001
12.51599979,1332,0.734700024,0.043099999,4.488900185,-0.426800013,1.036599994,0.122000001
12.52499962,1333,0.662800014,-0.092200004,4.439799786,-1.219499946,1.280500054,0.061000001
12.60700035,1341,-0.052700002,-0.175400004,5.480999947,0.853699982,0.914600015,-0.122000001
12.61499977,1342,-0.059900001,-0.185000002,5.520500183,1.280500054,1.036599994,0.122000001
12.61900043,1343,-0.059900001,-0.185000002,5.520500183,1.280500054,1.036599994,0.122000001
12.63599968,1344,-0.053300001,-0.222100005,5.448699951,1.036599994,1.158499956,0.304899991
12.73700047,1356,-0.058699999,-0.079000004,4.828400135,0.243900001,0.487800002,-0.548799992
12.75399971,1357,-0.063500002,0.135299996,4.781099796,0.122000001,0.487800002,-0.426800013
12.76200008,1358,-0.050299998,0.25029999,4.769100189,-0.182899997,0.548799992,-0.304899991
12.76599979,1359,-0.050299998,0.25029999,4.769100189,-0.182899997,0.548799992,-0.304899991
12.78600025,1360,-0.032299999,0.243699998,4.826600075,-0.426800013,0.670700014,-0.182899997
12.79399967,1361,-0.0084,0.200599998,4.927800179,-0.426800013,0.670700014,-0.182899997
12.79800034,1362,-0.0084,0.200599998,4.927800179,-0.426800013,0.670700014,-0.182899997
12.80900002,1363,-0.0072,0.196400002,5.0145998,-0.548799992,0.548799992,-0.182899997
12.81299973,1364,-0.0072,0.196400002,5.0145998,-0.548799992,0.548799992,-0.182899997
12.82499981,1365,-0.037700001,0.194000006,5.103199959,-0.792699993,0.487800002,-0.243900001
12.82900047,1366,-0.037700001,0.194000006,5.103199959,-0.792699993,0.487800002,-0.243900001
12.84500027,1367,-0.059300002,0.144299999,5.148099899,-0.792699993,0.487800002,-0.304899991
12.85299969,1368,-0.055100001,0.110799998,5.140900135,-0.609799981,0.365799993,-0.304899991
12.85700035,1369,-0.055100001,0.110799998,5.140900135,-0.609799981,0.365799993,-0.304899991
12.875,1370,-0.0515,0.086800002,5.107999802,-0.365799993,0.487800002,-0.304899991
12.88300037,1371,-0.062899999,0.0383,5.131899834,-0.304899991,0.548799992,-0.243900001
12.88700008,1372,-0.062899999,0.0383,5.131899834,-0.304899991,0.548799992,-0.243900001
12.89900017,1373,-0.085000001,0.0024,5.175600052,-0.182899997,0.487800002,-0.304899991
12.90299988,1374,-0.085000001,0.0024,5.175600052,-0.182899997,0.487800002,-0.304899991
12.92500019,1375,-0.097000003,0.0108,5.165500164,-0.243900001,0.365799993,-0.365799993
12.93299961,1376,-0.103,0.049699999,5.118199825,-0.182899997,0.304899991,-0.365799993
12.94099998,1377,-0.095799997,0.095799997,5.067299843,-0.182899997,0.243900001,-0.365799993
12.94400024,1378,-0.095799997,0.095799997,5.067299843,-0.182899997,0.243900001,-0.365799993
12.95400047,1379,-0.072999999,0.125100002,5.028299809,-0.304899991,0.243900001,-0.365799993
12.95800018,1380,-0.072999999,0.125100002,5.028299809,-0.304899991,0.243900001,-0.365799993
12.9630003,1381,-0.072999999,0.125100002,5.028299809,-0.304899991,0.243900001,-0.365799993
13.16899967,1402,-0.0275,0.079000004,5.058300018,0.792699993,0.365799993,-0.426800013
13.17300034,1403,-0.0275,0.079000004,5.058300018,0.792699993,0.365799993,-0.426800013
13.18500042,1404,-0.0491,0.128700003,5.079800129,0.792699993,0.365799993,-0.426800013
13.18900013,1405,-0.0491,0.128700003,5.079800129,0.792699993,0.365799993,-0.426800013
13.19900036,1406,-0.0287,0.154499993,5.097199917,0.853699982,0.304899991,-0.426800013
13.20300007,1407,-0.0287,0.154499993,5.097199917,0.853699982,0.304899991,-0.426800013
13.21399975,1408,-0.0096,0.149700001,5.096600056,1.097599983,0.304899991,-0.426800013
13.21800041,1409,-0.0096,0.149700001,5.096600056,1.097599983,0.304899991,-0.426800013
13.23499966,1410,0.0108,0.161699995,5.073800087,1.341500044,0.365799993,-0.426800013
13.24300003,1411,0,0.191,5.088799953,1.524399996,0.365799993,-0.426800013
13.24699974,1412,0,0.191,5.088799953,1.524399996,0.365799993,-0.426800013
13.26500034,1413,-0.006,0.219699994,5.132500172,1.280500054,0.304899991,-0.426800013
13.27299976,1414,0.015,0.198799998,5.184599876,1.036599994,0.426800013,-0.365799993
13.27700043,1415,0.015,0.198799998,5.184599876,1.036599994,0.426800013,-0.365799993
13.29500008,1416,0.047899999,0.1329,5.213399887,1.097599983,0.365799993,-0.426800013
13.3039999,1417,0.093400002,0.104199998,5.19659996,0.975600004,0.426800013,-0.487800002
13.30799961,1418,0.093400002,0.104199998,5.19659996,0.975600004,0.426800013,-0.487800002
13.32499981,1419,0.101800002,0.134100005,5.134900093,0.731700003,0.365799993,-0.609799981
13.33399963,1420,0.104199998,0.201199993,5.065499783,0.548799992,0.365799993,-0.670700014
13.3380003,1421,0.104199998,0.201199993,5.065499783,0.548799992,0.365799993,-0.670700014
13.35599995,1422,0.100599997,0.249699995,5.045700073,0.670700014,0.365799993,-0.731700003
13.36400032,1423,0.085000001,0.320300013,5.031899929,0.731700003,0.365799993,-0.731700003
13.36800003,1424,0.085000001,0.320300013,5.031899929,0.731700003,0.365799993,-0.731700003
13.38500023,1425,0.064099997,0.413700014,4.988200188,0.670700014,0.304899991,-0.731700003
13.39299965,1426,0.041299999,0.489199996,4.941500187,0.365799993,0.304899991,-0.731700003
13.39700031,1427,0.041299999,0.489199996,4.941500187,0.365799993,0.304899991,-0.731700003
13.41499996,1428,0.0114,0.551400006,4.875699997,0.182899997,0.304899991,-0.731700003
13.42300034,1429,-0.0473,0.605300009,4.793600082,-0.061000001,0.182899997,-0.670700014
13.42700005,1430,-0.0473,0.605300009,4.793600082,-0.061000001,0.182899997,-0.670700014
13.44499969,1431,-0.160500005,0.635900021,4.706200123,-0.548799992,-0.061000001,-0.426800013
13.45300007,1432,-0.305999994,0.611299992,4.631400108,-0.792699993,-0.426800013,-0.243900001
13.45699978,1433,-0.305999994,0.611299992,4.631400108,-0.792699993,-0.426800013,-0.243900001
13.47500038,1434,-0.392800003,0.525099993,4.58949995,-0.853699982,-0.426800013,0.061000001
13.4829998,1435,-0.431699991,0.310200006,4.601399899,-0.792699993,-0.365799993,0.365799993
13.48700047,1436,-0.431699991,0.310200006,4.601399899,-0.792699993,-0.365799993,0.365799993
13.50500011,1437,-0.488000005,0.036499999,4.668499947,-0.853699982,-0.365799993,0.548799992
13.51299953,1438,-0.527499974,-0.3838,4.787000179,-0.853699982,-0.487800002,0.609799981
13.5170002,1439,-0.527499974,-0.3838,4.787000179,-0.853699982,-0.487800002,0.609799981
13.53499985,1440,-0.56400001,-0.750199974,4.894800186,-0.548799992,-0.609799981,0.426800013
13.54300022,1441,-0.608900011,-0.960399985,5.03429985,0.182899997,-0.853699982,0.304899991
13.54699993,1442,-0.608900011,-0.960399985,5.03429985,0.182899997,-0.853699982,0.304899991
13.56499958,1443,-0.603500009,-1.015499949,5.192399979,0.609799981,-1.158499956,0.182899997
13.57400036,1444,-0.538900018,-0.952000022,5.287000179,1.280500054,-1.402400017,0.243900001
13.57800007,1445,-0.538900018,-0.952000022,5.287000179,1.280500054,-1.402400017,0.243900001
13.59500027,1446,-0.42809999,-0.819700003,5.339700222,1.890200019,-1.646299958,0.304899991
13.60400009,1447,-0.281399995,-0.6347,5.336100101,2.134200096,-1.890200019,0.426800013
13.60700035,1448,-0.281399995,-0.6347,5.336100101,2.134200096,-1.890200019,0.426800013
13.61900043,1449,-0.133499995,-0.451499999,5.297800064,1.951200008,-1.890200019,0.487800002
13.62300014,1450,-0.133499995,-0.451499999,5.297800064,1.951200008,-1.890200019,0.487800002
13.63500023,1451,-0.029899999,-0.319099993,5.343299866,1.463400006,-1.951200008,0.609799981
15.31700039,1619,0.088,-0.059900001,4.837900162,-0.853699982,0.487800002,-0.365799993
15.3210001,1620,0.088,-0.059900001,4.837900162,-0.853699982,0.487800002,-0.365799993
15.32999992,1621,0.095200002,-0.135299996,4.832600117,-0.975600004,0.609799981,-0.426800013
15.33300018,1622,0.095200002,-0.135299996,4.832600117,-0.975600004,0.609799981,-0.426800013
15.34399986,1623,0.092799999,-0.225700006,4.847499847,-0.853699982,0.670700014,-0.487800002
15.34799957,1624,0.092799999,-0.225700006,4.847499847,-0.853699982,0.670700014,-0.487800002
15.36200047,1625,0.095200002,-0.302399993,4.846300125,-0.670700014,0.792699993,-0.548799992
15.36600018,1626,0.095200002,-0.302399993,4.846300125,-0.670700014,0.792699993,-0.548799992
15.38500023,1627,0.0832,-0.368800014,4.842100143,-0.609799981,0.853699982,-0.609799981
15.39299965,1628,0.0557,-0.416700006,4.85890007,-0.426800013,0.914600015,-0.670700014
15.39700031,1629,0.0557,-0.416700006,4.85890007,-0.426800013,0.914600015,-0.670700014
15.41499996,1630,0.033500001,-0.422699988,4.85890007,-0.182899997,0.853699982,-0.792699993
15.42399979,1631,0.0138,-0.375999987,4.855899811,0,0.792699993,-0.853699982
15.42800045,1632,0.0138,-0.375999987,4.855899811,0,0.792699993,-0.853699982
15.44499969,1633,-0.009,-0.286199987,4.850500107,0.182899997,0.670700014,-0.853699982
15.45300007,1634,-0.009,-0.184400007,4.857699871,0.182899997,0.609799981,-0.792699993
15.45699978,1635,-0.009,-0.184400007,4.857699871,0.182899997,0.609799981,-0.792699993
15.46899986,1636,-0.019200001,-0.0605,4.863699913,0.243900001,0.609799981,-0.731700003
15.47299957,1637,-0.019200001,-0.0605,4.863699913,0.243900001,0.609799981,-0.731700003
15.49600029,1638,-0.052099999,-0.0305,4.905600071,0.426800013,0.609799981,-0.548799992
15.5,1639,-0.052099999,-0.0305,4.905600071,0.426800013,0.609799981,-0.548799992
15.51500034,1640,-0.0766,-0.086199999,4.939099789,0.792699993,0.731700003,-0.426800013
15.51900005,1641,-0.0766,-0.086199999,4.939099789,0.792699993,0.731700003,-0.426800013
15.53499985,1642,-0.0814,-0.139500007,4.953499794,0.975600004,0.731700003,-0.426800013
15.54399967,1643,-0.083800003,-0.182600006,4.985199928,1.402400017,0.609799981,-0.426800013
15.54800034,1644,-0.083800003,-0.182600006,4.985199928,1.402400017,0.609799981,-0.426800013
15.56599998,1645,-0.056899998,-0.160500005,5.023600101,1.646299958,0.609799981,-0.487800002
15.60700035,1650,0.0449,0.088,5.190000057,1.768300056,0.426800013,-0.548799992
15.74100018,1663,-1.046599984,0.893299997,4.558300018,-0.548799992,-1.219499946,0.243900001
15.7489996,1664,-1.06099999,0.721499979,4.552899837,-0.609799981,-1.036599994,0.792699993
15.75300026,1665,-1.06099999,0.721499979,4.552899837,-0.609799981,-1.036599994,0.792699993
15.76500034,1666,-0.843599975,0.286199987,4.692399979,-0.061000001,-0.365799993,0.975600004
15.76900005,1667,-0.843599975,0.286199987,4.692399979,-0.061000001,-0.365799993,0.975600004
15.77999973,1668,-0.843599975,0.286199987,4.692399979,-0.061000001,-0.365799993,0.975600004
15.78800011,1669,-0.547900021,-0.2245,4.968500137,0.243900001,-0.304899991,0.731700003
15.79599953,1670,-0.275999993,-0.60589999,5.349299908,-0.061000001,-1.097599983,0.426800013
15.80000019,1671,-0.275999993,-0.60589999,5.349299908,-0.061000001,-1.097599983,0.426800013
15.81000042,1672,-0.066500001,-0.790400028,5.567200184,-0.182899997,-1.524399996,0.304899991
15.81400013,1673,-0.066500001,-0.790400028,5.567200184,-0.182899997,-1.524399996,0.304899991
15.82600021,1674,0.028100001,-0.773599982,5.643899918,0.670700014,-2.073199987,0.304899991
15.82999992,1675,0.028100001,-0.773599982,5.643899918,0.670700014,-2.073199987,0.304899991
15.84000015,1676,0.020400001,-0.532899976,5.619900227,1.341500044,-2.378000021,0.426800013
15.84399986,1677,0.020400001,-0.532899976,5.619900227,1.341500044,-2.378000021,0.426800013
15.85599995,1678,-0.100599997,-0.277200013,5.632500172,1.463400006,-2.561000109,0.670700014
15.85999966,1679,-0.100599997,-0.277200013,5.632500172,1.463400006,-2.561000109,0.670700014
15.96800041,1690,-0.432900012,-0.939999998,5.767199993,0.122000001,-4.634200096,0.609799981
15.9829998,1691,-0.483799994,-1.029899955,5.546299934,0.792699993,-4.268300056,0.548799992
15.99100018,1692,-0.51910001,-1.005900025,5.429500103,1.341500044,-3.841500044,0.487800002
15.99499989,1693,-0.51910001,-1.005900025,5.429500103,1.341500044,-3.841500044,0.487800002
16.01499939,1694,-0.514900029,-0.866400003,5.412199974,1.463400006,-3.353699923,0.548799992
17.81699944,1875,-0.419099987,-1.319100022,5.598999977,1.585399985,-2.073199987,0.304899991
17.82900047,1876,-0.305400014,-0.959200025,5.567800045,1.951200008,-2.621999979,0.365799993
17.83300018,1877,-0.305400014,-0.959200025,5.567800045,1.951200008,-2.621999979,0.365799993
18.03499985,1898,0.1347,-0.656799972,5.495999813,0.731700003,-1.097599983,0.670700014
18.03899956,1899,0.1347,-0.656799972,5.495999813,0.731700003,-1.097599983,0.670700014
18.05500031,1900,0.239500001,-0.6347,5.537899971,0.609799981,-0.731700003,0.670700014
18.06299973,1901,0.302399993,-0.571200013,5.575600147,0.487800002,-0.304899991,0.609799981
18.06699944,1902,0.302399993,-0.571200013,5.575600147,0.487800002,-0.304899991,0.609799981
18.08499908,1903,0.391600013,-0.447299987,5.584000111,0.426800013,0.243900001,0.548799992
18.09399986,1904,0.447299987,-0.310799986,5.587600231,0.243900001,0.853699982,0.487800002
18.20800018,1915,0.311399996,-0.4102,5.998899937,-1.951200008,1.219499946,0
18.29000092,1923,-0.201800004,-0.019200001,6.68569994,-2.804899931,0.061000001,0
18.29400063,1924,-0.201800004,-0.019200001,6.68569994,-2.804899931,0.061000001,0
18.30699921,1925,-0.210800007,-0.0006,6.764699936,-2.438999891,-0.243900001,0.122000001
18.31100082,1926,-0.210800007,-0.0006,6.764699936,-2.438999891,-0.243900001,0.122000001
18.32600021,1927,-0.197600007,0.034699999,6.759300232,-1.707299948,-0.548799992,0.365799993
18.33399963,1928,-0.136500001,0.062899999,6.692900181,-1.158499956,-0.426800013,0.426800013
18.33699989,1929,-0.136500001,0.062899999,6.692900181,-1.158499956,-0.426800013,0.426800013
18.35000038,1930,-0.136500001,0.062899999,6.692900181,-1.158499956,-0.426800013,0.426800013
18.3579998,1931,-0.040100001,0.0898,6.583300114,-0.914600015,-0.182899997,0.487800002
18.36599922,1932,0.067699999,0.113200001,6.476099968,-0.670700014,-0.122000001,0.487800002
18.36899948,1933,0.067699999,0.113200001,6.476099968,-0.670700014,-0.122000001,0.487800002
18.37899971,1934,0.156299993,0.135900006,6.363599777,-0.792699993,0,0.548799992
18.38299942,1935,0.156299993,0.135900006,6.363599777,-0.792699993,0,0.548799992
18.38999939,1936,0.156299993,0.135900006,6.363599777,-0.792699993,0,0.548799992
18.39900017,1937,0.215000004,0.129299998,6.290500164,-0.914600015,0.122000001,0.548799992
18.40299988,1938,0.215000004,0.129299998,6.290500164,-0.914600015,0.122000001,0.548799992
18.41600037,1939,0.1778,0.279000014,6.189899921,-1.524399996,0,0.548799992
18.42499924,1940,0.186800003,0.380199999,6.169000149,-2.012200117,0,0.548799992
18.42900085,1941,0.186800003,0.380199999,6.169000149,-2.012200117,0,0.548799992
18.44099998,1942,0.188600004,0.453299999,6.177999973,-2.256099939,0.122000001,0.670700014
18.44499969,1943,0.188600004,0.453299999,6.177999973,-2.256099939,0.122000001,0.670700014
18.46100044,1944,0.1664,0.51730001,6.177999973,-2.317100048,0.182899997,0.792699993
18.46899986,1945,0.171800002,0.539499998,6.174399853,-2.317100048,0.182899997,0.914600015
18.47299957,1946,0.171800002,0.539499998,6.174399853,-2.317100048,0.182899997,0.914600015
18.47999954,1947,0.171800002,0.539499998,6.174399853,-2.317100048,0.182899997,0.914600015
18.48800087,1948,0.240700006,0.430500001,6.212100029,-1.951200008,0.304899991,0.914600015
18.49200058,1949,0.240700006,0.430500001,6.212100029,-1.951200008,0.304899991,0.914600015
18.50600052,1950,0.236499995,0.435299993,6.149799824,-2.012200117,0.426800013,0.975600004
18.51399994,1951,0.253300011,0.389800012,6.165400028,-2.012200117,0.365799993,0.914600015
18.5170002,1952,0.253300011,0.389800012,6.165400028,-2.012200117,0.365799993,0.914600015
18.5359993,1953,0.284399986,0.331699997,6.196499825,-2.012200117,0.365799993,0.853699982
18.54500008,1954,0.316100001,0.280800015,6.232999802,-2.073199987,0.426800013,0.731700003
18.95899963,1996,0.120999999,-0.234099999,5.269599915,-0.182899997,1.158499956,0.122000001
18.96800041,1997,0.1479,-0.363999993,5.260099888,-0.609799981,1.158499956,0.061000001
18.97200012,1998,0.1479,-0.363999993,5.260099888,-0.609799981,1.158499956,0.061000001
18.98500061,1999,0.1162,-0.445499986,5.301400185,-0.853699982,0.914600015,-0.061000001
18.98900032,2000,0.1162,-0.445499986,5.301400185,-0.853699982,0.914600015,-0.061000001
19.00499916,2001,0.056899998,-0.484400004,5.372600079,-0.670700014,0.731700003,-0.122000001
19.01300049,2002,0.0108,-0.432900012,5.351099968,-0.365799993,0.548799992,-0.182899997
19.0170002,2003,0.0108,-0.432900012,5.351099968,-0.365799993,0.548799992,-0.182899997
19.03499985,2004,-0.0287,-0.297600001,5.230700016,-0.182899997,0.731700003,-0.182899997
19.04299927,2005,-0.0473,-0.164100006,5.134900093,-0.182899997,0.670700014,-0.122000001
19.04700089,2006,-0.0473,-0.164100006,5.134900093,-0.182899997,0.670700014,-0.122000001
19.06500053,2007,-0.043699998,-0.083800003,5.08039999,-0.426800013,0.548799992,-0.061000001
19.0739994,2008,-0.017999999,-0.066500001,5.074999809,-0.487800002,0.548799992,-0.061000001
19.07799911,2009,-0.017999999,-0.066500001,5.074999809,-0.487800002,0.548799992,-0.061000001
19.09499931,2010,0.0072,-0.036499999,5.087600231,-0.426800013,0.548799992,0
19.10400009,2011,0.0156,0.024599999,5.095399857,-0.304899991,0.487800002,0
19.1079998,2012,0.0156,0.024599999,5.095399857,-0.304899991,0.487800002,0
19.12599945,2013,0.0072,0.102399997,5.084599972,-0.243900001,0.548799992,0.061000001
19.13500023,2014,-0.0114,0.186199993,5.075600147,-0.304899991,0.548799992,0.061000001
19.93099976,2094,-0.477200001,-0.302399993,5.188199997,1.036599994,-0.914600015,1.585399985
19.93499947,2095,-0.477200001,-0.302399993,5.188199997,1.036599994,-0.914600015,1.585399985
19.9470005,2096,-0.289799988,-0.695200026,5.319300175,1.219499946,-1.402400017,1.341500044
20.14500046,2116,-0.270599991,-0.623300016,6.23360014,0.792699993,-2.621999979,1.036599994
20.15299988,2117,-0.416099995,-0.725700021,6.443799973,1.158499956,-3.1098001,1.097599983
20.15699959,2118,-0.416099995,-0.725700021,6.443799973,1.158499956,-3.1098001,1.097599983
20.17499924,2119,-0.577199996,-0.839399993,6.449800014,1.463400006,-3.658499956,1.097599983
20.18300056,2120,-0.696399987,-1.03760004,6.298900127,2.378000021,-4.024400234,0.914600015
20.18700027,2121,-0.696399987,-1.03760004,6.298900127,2.378000021,-4.024400234,0.914600015
20.19799995,2122,-0.714900017,-1.17900002,6.162399769,3.292700052,-4.085400105,0.853699982
20.20100021,2123,-0.714900017,-1.17900002,6.162399769,3.292700052,-4.085400105,0.853699982
20.21299934,2124,-0.706499994,-1.251999974,6.106100082,3.597599983,-4.085400105,0.731700003
20.21699905,2125,-0.706499994,-1.251999974,6.106100082,3.597599983,-4.085400105,0.731700003
20.23500061,2126,-0.65200001,-1.247200012,6.007900238,3.719500065,-4.024400234,0.487800002
20.24300003,2127,-0.617900014,-1.125100017,5.889900208,3.536600113,-3.719500065,0.243900001
20.24699974,2128,-0.617900014,-1.125100017,5.889900208,3.536600113,-3.719500065,0.243900001
20.26499939,2129,-0.505400002,-0.982599974,5.856400013,3.048799992,-3.414599895,0.061000001
20.27300072,2130,-0.34009999,-0.799300015,5.775000095,3.1098001,-3.170700073,-0.061000001
20.27700043,2131,-0.34009999,-0.799300015,5.775000095,3.1098001,-3.170700073,-0.061000001
20.28800011,2132,-0.150299996,-0.50059998,5.584000111,2.5,-2.682899952,-0.061000001
20.29199982,2133,-0.150299996,-0.50059998,5.584000111,2.5,-2.682899952,-0.061000001
20.30599976,2134,0.046100002,-0.291000009,5.484600067,2.195100069,-1.951200008,0.061000001
20.30999947,2135,0.046100002,-0.291000009,5.484600067,2.195100069,-1.951200008,0.061000001
20.32600021,2136,0.208399996,-0.210800007,5.489999771,2.073199987,-1.280500054,0.122000001
20.33499908,2137,0.300599992,-0.155699998,5.567200184,1.524399996,-1.097599983,-0.182899997
20.3390007,2138,0.300599992,-0.155699998,5.567200184,1.524399996,-1.097599983,-0.182899997
20.35099983,2139,0.454400003,-0.164100006,5.665999889,0.853699982,-1.158499956,-0.365799993
20.35499954,2140,0.454400003,-0.164100006,5.665999889,0.853699982,-1.158499956,-0.365799993
20.375,2141,0.687399983,-0.215599999,5.69960022,0.365799993,-0.792699993,-0.548799992
20.38299942,2142,0.871800005,-0.277200013,5.71269989,0.304899991,-0.426800013,-0.792699993
20.38699913,2143,0.871800005,-0.277200013,5.71269989,0.304899991,-0.426800013,-0.792699993
20.40500069,2144,1.012500048,-0.348500013,5.700200081,0.487800002,0,-0.914600015
20.41300011,2145,1.074200034,-0.402399987,5.682199955,0.609799981,0.365799993,-1.097599983
